time,seconds_elapsed,z,y,x
1764585664362463200,0.123463134765625,1.4827309586048125,-0.36259178765416145,0.25054803802315145
1764585664372417300,0.133417236328125,1.2774193984180688,-0.03810615103244781,0.1492802782220766
1764585664382371000,0.14337109375,1.0418477245241402,0.3298129691243171,-0.044424905725196
1764585664392326100,0.153326171875,0.8523053958773612,0.6689344493418932,-0.2412334625152871
1764585664402280400,0.163280517578125,0.8220669094800949,0.9744652101248502,-0.43059908288829024
1764585664412234200,0.173234130859375,0.8405699498981237,1.1809060666024684,-0.574078492811881
1764585664422188300,0.183188232421875,0.7954431064486503,1.2070903091728686,-0.664146484412998
1764585664432142300,0.193142333984375,0.6636018561422824,1.0194470921456813,-0.6843044524312019
1764585664442096000,0.20309619140625,0.6560925034254789,0.748831577399373,-0.7359642047807574
1764585664452050200,0.21305029296875,0.6293371829688549,0.4911030167549848,-0.7494964710488915
1764585664462004200,0.223004150390625,0.5827256539195775,0.36659459355473517,-0.684588676200062
1764585664471959000,0.232958984375,0.5414923107773065,0.31828853554725645,-0.5631238219467922
1764585664481913300,0.242913330078125,0.36539223202764987,0.22724925122857093,-0.47373979402184485
1764585664491867400,0.252867431640625,0.15279869813919067,0.1345689217045903,-0.39943485994823275
1764585664501821200,0.2628212890625,-0.005015782335400581,0.2372837385088205,-0.3388439784504473
1764585664511775200,0.272775146484375,-0.3175859402358532,0.17286825722157953,-0.28490017028432335
1764585664521729300,0.282729248046875,-0.6972592110723257,-0.15197306097000837,-0.25892248313669114
1764585664531683300,0.292683349609375,-0.8569511758565902,-0.6060483695790171,-0.38059809406381095
1764585664541637000,0.30263720703125,-0.8331599659025669,-1.1011252584010363,-0.48461646774727846
1764585664551591200,0.312591064453125,-0.7208867548972367,-1.4100368937939405,-0.5598436312323436
1764585664561546200,0.322546142578125,-0.48831893899440765,-1.2870944047361612,-0.656475511393696
1764585664571500300,0.332500244140625,-0.11870119822621344,-0.7527347223177552,-0.6240472598671912
1764585664581454300,0.342454345703125,0.18774200122654436,-0.29876638121455906,-0.3544903873283416
1764585664591408000,0.352408203125,0.6045604691088199,-0.2949623127564788,-0.08438523325696587
1764585664601362200,0.362362060546875,1.0623059906631707,1.0220341860294342,-0.6968903777599335
1764585664611316200,0.372316162109375,-0.34834757372438907,0.9620169397011399,-0.6812415577292442
1764585664621270300,0.382270263671875,-0.6918436157643795,-0.7383364868700504,0.49342418971154833
1764585664631224000,0.39222412109375,-0.9520447040021419,-0.8620034908100962,0.2895835423275828
1764585664641179400,0.402179443359375,-0.9409458023607731,-0.8411118016898631,0.3792270249063149
1764585664651133200,0.41213330078125,-1.2204548176586627,-0.8985124357789754,0.7703202825646847
1764585664661087200,0.422087158203125,-1.2591677024126051,-0.5479942400172353,0.808271316100657
1764585664671041300,0.432041259765625,-1.013595443508029,-0.2589984344497323,0.8565139534831047
1764585664680995300,0.441995361328125,-0.7981950355052948,-0.1310927700266242,0.8442707041122018
1764585664690949000,0.45194921875,-0.7834037090867757,-0.052042906448245045,0.6816515267696232
1764585664700903200,0.461903076171875,-1.1283540415883064,-0.05476677845418453,0.5885711285447701
1764585664710857200,0.471857177734375,-1.2922621627628803,0.08478460783809423,0.4234855245560407
1764585664720812300,0.481812255859375,-1.1633844384372234,0.3454123970553279,0.28683891979455944
1764585664730766300,0.491766357421875,-0.9569313069999218,0.4864636665165424,-0.04354541947692633
1764585664740720400,0.501720458984375,-0.7551812386870383,0.6419008964657783,-0.4710897909697145
1764585664750674200,0.511674072265625,-0.43441725293695926,0.7674117747068405,-0.6706976596221328
1764585664760628200,0.521628173828125,-0.09655775547921656,0.47714054237604137,-0.45965018613189457
1764585664770582300,0.531582275390625,0.26662673737108705,0.1298857323244214,-0.5280287258312106
1764585664780536000,0.5415361328125,0.37666415214836596,-0.06270575475990772,-0.4208316490463912
1764585664790489900,0.55148974609375,0.3445633790105581,-0.16894114690572024,0.11376418021544814
1764585664800445000,0.56144482421875,0.8056359991610049,-0.21041648211032152,-0.05259761772155761
1764585664810398700,0.571398681640625,0.14024842864573,0.10236351914852856,-0.5493585141077637
1764585664820353000,0.58135302734375,-0.2513268769085407,0.23244565082788465,-0.5550038265183568
1764585664830307000,0.59130712890625,-0.5806523547768593,0.22898557350188492,-0.35436727240532634
1764585664840260900,0.6012607421875,-0.847995715984702,0.2038216138899326,-0.10161226238980889
1764585664850215000,0.61121484375,-0.9967997915297746,0.28982348856329915,0.18342632998451588
1764585664860169000,0.6211689453125,-1.3256892160683869,0.3983274101629853,0.2712396379940212
1764585664870123000,0.631123046875,-1.6007862601429224,0.29094869320094585,0.5459650722771883
1764585664880077800,0.641077880859375,-1.4164298097014427,0.3978513170838356,0.6056904960520565
1764585664890031900,0.651031982421875,-1.1256482897609472,0.5035653157040476,0.23789763262346386
1764585664899986000,0.66098583984375,-0.9200964910775422,0.39980888089239597,-0.04847819970399141
1764585664909940000,0.67093994140625,-0.5428232671201229,0.21825872004330157,-0.16135259147286415
1764585664919894000,0.68089404296875,-0.17549743668138978,0.0910734788492322,-0.11938216622769832
1764585664929848000,0.69084814453125,0.2120528511404991,0.30503596300333735,-0.01267857204824686
1764585664939801900,0.7008017578125,0.3827098620533943,0.501194202658534,0.054393268966674804
1764585664949757000,0.7107568359375,0.33741642986536025,0.6232201613932847,-0.02269143201857805
1764585664959710700,0.720710693359375,0.2832031936407089,0.658494303870201,-0.2067864550448954
1764585664969664800,0.730664794921875,0.26660569458305833,0.5855494791686534,-0.3248269974052906
1764585664979619000,0.740619140625,0.07073065578341484,0.34599487311840055,-0.25161533846110107
1764585664989573000,0.750572998046875,-0.15968495052158832,0.352678296405077,-0.26533245977684855
1764585664999527000,0.76052685546875,-0.0027858313262462612,0.2963742253810167,-0.20033143368661402
1764585665009481000,0.77048095703125,0.16322423056364058,0.4095920237600803,-0.032535511293262244
1764585665019435000,0.78043505859375,0.1705956361144781,0.5470926150023937,0.21759075765386224
1764585665029389800,0.790389892578125,0.1097404776573181,0.6255693548679352,0.43556072388365863
1764585665039343900,0.80034375,0.14361936638355255,0.6310948402911424,0.3810951203331351
1764585665049298000,0.8102978515625,0.13675123417973517,0.44151042606830593,0.33526845805123445
1764585665059252000,0.820251953125,0.237307119384408,0.2505611532330513,0.39303310314714907
1764585665069206000,0.8302060546875,0.42998248535990713,0.1087210714817047,0.4903609662160277
1764585665079160000,0.84016015625,0.4762298572719097,0.027291327029466628,0.5578339353777468
1764585665089113900,0.85011376953125,0.025409166544675826,-0.29412907680273054,0.6604765637286008
1764585665099068000,0.86006787109375,-0.611126988017559,-0.2472188570678234,0.6708375064842402
1764585665109023000,0.87002294921875,-1.015057332754135,0.3131225310862064,0.9734120478101074
1764585665118976800,0.879976806640625,-1.1549731684446334,0.6691741033166646,1.2294349735803902
1764585665128930800,0.889930908203125,-1.1210545322299004,0.6368728391706943,1.1771586967676877
1764585665138885000,0.899885009765625,-0.9275251797735691,0.5856739823311568,0.8655429900478571
1764585665148839000,0.9098388671875,-0.7110667871505022,0.3358592635512352,0.4207021043825894
1764585665158793000,0.91979296875,-0.33910569812655444,0.1644528955757618,-0.16983488087505103
1764585665168747000,0.9297470703125,0.24764205091595648,0.1740735413581133,-0.2775713982988149
1764585665178700800,0.93970068359375,0.5988058511048555,-0.014962591332197189,-0.2170688526716083
1764585665188655900,0.94965576171875,0.8357271860420703,-0.22888298991024492,-0.15471132682748137
1764585665198610000,0.95960986328125,0.935046807450056,-0.343299058163166,-0.23049933906570075
1764585665208564000,0.96956396484375,0.8451134385466575,-0.3734837685465813,-0.19832798490971326
1764585665218518000,0.97951806640625,0.653121378660202,-0.3559183012396097,-0.11448759911917149
1764585665228472000,0.98947216796875,0.27112287974655624,-0.4580635014623403,-0.015960004871711134
1764585665238425900,0.99942578125,-0.24982757826149463,-0.5166594828158617,0.18162717160806058
1764585665248380000,1.0093798828125,-0.6029886897474527,-0.38988779085874553,0.3667527797911316
1764585665258335000,1.0193349609375,-0.7931167093276977,-0.37731238692402835,0.48601007753014563
1764585665268288800,1.029288818359375,-0.8282558272480964,-0.4249450757145881,0.5568668439112603
1764585665278242800,1.039242919921875,-0.7968009507983922,-0.571525629991293,0.5878257535375654
1764585665288197000,1.049197021484375,-0.8027303408473729,-0.7573919004738331,0.3984232717528939
1764585665298151000,1.05915087890625,-0.5523492203563451,-0.29122867918610573,0.7510368323586881
1764585665308105000,1.06910498046875,-0.6334861193418503,-0.25679917083978654,0.9671082714907825
1764585665318059000,1.07905908203125,-0.7615572034597397,-0.23807108949422834,1.2431157084085047
1764585665328013800,1.089013916015625,-0.7569809815853834,0.00025718963146209714,1.6332454913295804
1764585665337967900,1.0989677734375,-0.7106541146963834,0.14305062658488749,1.6758955694019793
1764585665347922000,1.108921875,-0.47120764519572256,0.22409692467749118,1.4162908396221696
1764585665357875700,1.118875732421875,-0.1500999605745077,0.38844577535688873,1.118795501256734
1764585665367830000,1.128830078125,0.46164252899289127,1.293976565465331,1.567128174560517
1764585665377784000,1.1387841796875,-0.03908756328523159,0.5395148732244968,1.0060342144735157
1764585665387738000,1.148738037109375,-0.6234381880581379,-0.29155834953188897,0.4028416727170348
1764585665397692000,1.15869189453125,-0.7880360450625419,-0.1454161866724491,0.41528826264031227
1764585665407647000,1.16864697265625,-0.8953519259214401,-0.010144377395510672,0.5634943722922354
1764585665417600800,1.178600830078125,-0.7188900281220674,0.31381518952548504,0.9784794142022728
1764585665427554800,1.188554931640625,0.03232873667478561,0.918895883116126,1.3329102533631025
1764585665437508900,1.1985087890625,-0.0772679485976696,-0.14891981087923048,0.3642348786860704
1764585665447463000,1.208462890625,-0.004261749097704887,-0.9180413121134042,-0.6015451398756355
1764585665457417000,1.2184169921875,0.4536912777274847,-0.72656889218688,-0.6904507001012563
1764585665467371000,1.22837109375,0.8958972848445177,-0.2609592131286859,-0.1273648355446756
1764585665477325800,1.238325927734375,0.906881620195508,-0.23299977757930754,0.23279709461405873
1764585665487279900,1.24827978515625,0.7554425199717283,-0.1388508368074894,0.6569509468857199
1764585665497234000,1.25823388671875,0.6913456031143664,0.053796472117304796,0.6981027492243796
1764585665507188000,1.26818798828125,0.5106675489246845,-0.08098200068473815,0.18921689608469605
1764585665517141800,1.278141845703125,0.4647627068400383,-0.1495043327689171,-0.3123147218346596
1764585665527096000,1.288095947265625,0.6859609874665736,0.059654550495743745,-0.4135724716983735
1764585665537048800,1.298048828125,0.8577905492901802,0.19348902044594288,-0.1747392387252301
1764585665547003100,1.308003173828125,1.127767181611061,0.33242285936176774,0.1694816104579717
1764585665556957000,1.31795703125,1.3336235161989927,0.23138649716377258,0.43582697360441086
1764585665566911000,1.327910888671875,1.6044699170917271,0.2136737303406,0.5855948526803404
1764585665576865000,1.337864990234375,1.6232745708048342,0.01101063883602619,0.2672421658556908
1764585665586819800,1.34781982421875,1.613832204198837,0.07609247507750988,0.056991834092512725
1764585665596774000,1.35777392578125,1.4140636650919913,0.38337972413897514,-0.0051539486970752476
1764585665606728000,1.36772802734375,0.8188251510798931,0.5505038847506046,-0.12795695621892808
1764585665616681700,1.377681640625,0.21777298235297202,0.685274174246192,-0.24117585057653484
1764585665626636000,1.387635986328125,-0.07793605711758136,0.8752367741316557,-0.0727279670804739
1764585665636590000,1.397590087890625,-0.23078502413928506,0.8385819909512996,0.2645740426249802
1764585665646544000,1.4075439453125,-0.43459436306953425,0.151115859618783,0.21579101475551724
1764585665656498000,1.417497802734375,-0.0782002610117197,-0.17569208247065543,0.24551205314993857
1764585665666453000,1.427452880859375,0.4599596904724836,-0.33067689247727394,0.1093063240237534
1764585665676406800,1.43740673828125,0.8753010715395212,-0.5051689515084028,-0.26020386471673845
1764585665686360800,1.44736083984375,1.1593524064421654,-0.5863467670261859,-0.49084670390635726
1764585665696315000,1.45731494140625,1.121006601434946,-0.4990852476805448,-0.4945343063779175
1764585665706269000,1.46726904296875,0.6622083559572697,-0.38326165071725843,-0.1026006889052689
1764585665716223000,1.477222900390625,0.11953706452846527,-0.3309954569071531,0.6515067830704152
1764585665726177000,1.487177001953125,-0.4009861079782247,-0.27943770362734793,1.323663117068261
1764585665736131800,1.4971318359375,-0.6635591860443353,-0.3223731745123863,1.7645146408364176
1764585665746086000,1.5070859375,-0.7060948439568281,-0.25821371381282804,1.7420416738741098
1764585665756040000,1.5170400390625,-0.6305588337182998,-0.22224223672151563,1.204717442561686
1764585665765993700,1.52699365234375,-0.24589666855335235,-0.13129472233951092,0.7644934030421078
1764585665775948500,1.536948486328125,0.4959299985200166,-0.13468202669024468,0.6558792990662157
1764585665785902600,1.546902587890625,1.0419020850598812,-0.1624555842787027,0.5929179621100426
1764585665795856400,1.5568564453125,1.2212293091624975,-0.0499754525244236,0.6072941318564117
1764585665805811500,1.5668115234375,1.1173498324930666,-0.005679214680194855,0.6453595124870538
1764585665815765500,1.576765625,0.6487503239691257,0.23253332911133764,0.8096107480108737
1764585665825719300,1.58671923828125,-0.07828443216383457,0.49307986978590485,1.170659544006735
1764585665835673300,1.59667333984375,-0.9748872349292039,0.7588678182452917,1.2814790490724146
1764585665845627400,1.60662744140625,-1.5373293947547673,1.099400334304571,1.207560410902649
1764585665855581400,1.61658154296875,-1.4125304641753433,1.126525072595477,0.5832650214932859
1764585665865535500,1.626535400390625,-0.5481225425720214,1.1282418133854866,-0.06892068375200033
1764585665875490300,1.636490234375,0.8927063798487186,0.9402508058339357,-0.439474682457
1764585665885444400,1.6464443359375,1.9438141001492737,0.5538496880471706,-0.6659544106177985
1764585665895398400,1.6563984375,2.477676062178612,0.1880588120907545,-0.6423717288479208
1764585665905352400,1.6663525390625,2.683573313298821,0.2781324662476778,-0.56544645620808
1764585665915306200,1.67630615234375,2.6213883675426244,0.8762211089938878,-0.20508973412960765
1764585665925260500,1.686260498046875,2.7299124551475047,2.7526789982289075,0.25365327402949334
1764585665935214600,1.696214599609375,1.7993869245141743,1.5347352866083384,-0.8724804611608385
1764585665945168400,1.70616845703125,1.0510235491484403,0.4855243398398161,-2.1400303536020218
1764585665955123500,1.71612353515625,1.3273901747673749,1.018306105417013,-0.636237463876605
1764585665965077500,1.726077392578125,1.5974328580617905,0.9744587803840636,-0.09255962575376034
1764585665975031300,1.73603125,2.1045167032808063,1.0048825602203606,0.038675475353002545
1764585665984985300,1.7459853515625,2.6651018370628354,0.805352506044507,-0.10489011501669883
1764585665994939400,1.755939453125,3.1487112831920383,0.6492313854843378,-0.10523732101917266
1764585666004893400,1.7658935546875,3.1121196283757686,0.5648971517622471,-0.10752513969540595
1764585666014847500,1.775847412109375,2.7153210352152586,0.37540626104176045,0.20458149234652517
1764585666024802600,1.785802490234375,1.0701356613755226,-0.13378946176469325,0.7113999646276236
1764585666034756400,1.79575634765625,-1.5181985778272151,-1.081306459209323,0.9666852237731218
1764585666044710400,1.80571044921875,-2.3605431361824274,-2.04324419619441,1.0486278861835598
1764585666054664400,1.81566455078125,-3.2560482068389653,-2.568729959544539,0.9502470069304108
1764585666064618200,1.8256181640625,-3.270265532761812,-2.5479572206288577,0.770115188446641
1764585666074572300,1.835572265625,-2.8444202933371066,-2.184962697392702,0.8298267298266291
1764585666084526600,1.845526611328125,-2.224478130701184,-1.323098615053296,0.9040478580743074
1764585666094481400,1.8554814453125,-1.5118220285326243,-0.36033027246296406,0.7894181470707058
1764585666104435500,1.865435546875,-2.149790261724591,-0.5657908857315779,0.2709624284878373
1764585666114389500,1.875389404296875,-2.627127787977457,-0.849646405801177,-0.3285509863644838
1764585666124343300,1.88534326171875,-2.5777251669049264,-0.802741446763277,-0.6818152659639716
1764585666134297300,1.89529736328125,-2.3748960711836813,-0.599532411813736,-0.839118582046032
1764585666144251400,1.90525146484375,-2.0772896736592052,-0.4512210882216692,-0.9853183203116058
1764585666154205400,1.915205322265625,-1.5136270321279763,-0.2666162159770727,-1.0817200084462761
1764585666164160500,1.925160400390625,-0.9287386472165584,0.265793209156394,-1.2530609099701047
1764585666174114600,1.935114501953125,-0.3154366532474756,0.4441489578783512,-0.8030351690128446
1764585666184068400,1.945068359375,-0.141029934412241,0.17484335668683051,-0.4027735759168863
1764585666194022400,1.9550224609375,-0.22968729203045365,0.3063052522867918,-0.37969665171205996
1764585666203976400,1.9649765625,-0.29697336031794547,0.5375415273249149,-0.5684776405975223
1764585666213930500,1.974930419921875,-0.5319605123221874,0.7926262954622506,-1.0696671670809388
1764585666223884300,1.98488427734375,-0.6668278324514627,0.8426999476641416,-1.4913406737789512
1764585666233839600,1.994839599609375,-0.5711205563217401,0.801226950547099,-1.685913397808373
1764585666243793400,2.00479345703125,-0.30052082366645333,0.704744598391652,-1.6605319960534572
1764585666253747500,2.01474755859375,0.15942717636823653,0.3188765645682812,-1.3060051491722464
1764585666263701500,2.024701416015625,0.7868576489329338,0.06441314319968224,-0.6152735863029957
1764585666273655300,2.0346552734375,1.204970832800865,-0.23282734362185,0.2600818457722664
1764585666283609300,2.044609375,1.1877280215770005,-0.6021966625869274,0.7596960857629775
1764585666293563400,2.0545634765625,0.728555097568035,-0.8379980535835028,0.9675088151156902
1764585666303517400,2.064517333984375,0.3544412144243717,-0.594084667801857,0.957725379987061
1764585666313472500,2.074472412109375,0.16704583467841147,-0.50834465893507,0.8643050457507372
1764585666323426600,2.084426513671875,-0.07286883685588837,-0.6906371625840664,0.7272656422793865
1764585666333380400,2.09438037109375,-0.06688800888061523,-0.8034779443442821,0.698450466683507
1764585666343334400,2.10433447265625,0.08714344592392444,-0.7828145110219716,0.6062254797115921
1764585666353288400,2.114288330078125,0.17041501885056495,-0.6361860259503126,0.5051397254139185
1764585666363242500,2.124242431640625,0.19258710317015645,-0.4877010993570089,0.4916328858479857
1764585666373196300,2.1341962890625,0.10978782393038272,-0.3969575831145048,0.5867617775678634
1764585666383151600,2.144151611328125,-0.10724924536347388,-0.47758536353409287,0.6875529328331351
1764585666393105400,2.15410546875,-0.4236252252876758,-0.5550888744533061,0.7701295092329382
1764585666403059500,2.1640595703125,-0.6717331401497125,-0.4527157106935978,0.6956202116936445
1764585666413013500,2.174013427734375,-0.7818436201632022,-0.24690146168172358,0.5992904197514057
1764585666422967600,2.183967529296875,-0.8066998290002345,-0.07997720755636692,0.5432400312274694
1764585666432921300,2.19392138671875,-0.6467331389278173,0.08055003900825977,0.44007600935101504
1764585666442875400,2.20387548828125,-0.6283417421907186,0.0901689312249422,0.3639896717533469
1764585666452830200,2.213830322265625,-0.6481915210425854,0.0007189619243144989,0.30725889974981546
1764585666462784500,2.223784423828125,-0.469636450356245,-0.024590835899114608,0.4958636552855372
1764585666472738600,2.233738525390625,-0.2082224791973829,0.0072808046579360955,0.5607002845942973
1764585666482692600,2.243692626953125,-0.36386721441745756,-0.1816927841901779,0.33675504334717987
1764585666492646400,2.253646484375,-0.7413426829487085,-0.8581406779021025,0.6571002191632985
1764585666502600400,2.263600341796875,-0.5073737680763006,-0.7753571807533503,0.8646817701086401
1764585666512554500,2.273554443359375,-0.214153038290143,-0.2683312032014131,0.9349030150651931
1764585666522509300,2.28350927734375,-0.2043500216782093,0.12278525266945362,0.9784060567051172
1764585666532463400,2.29346337890625,-0.306761763882637,0.10652326917648315,0.9143114779353141
1764585666542417400,2.30341748046875,-0.252626269069314,-0.36694647573232647,0.9774220141038298
1764585666552371500,2.313371337890625,0.13517068699002266,-0.7091530624836683,0.7236591422200203
1764585666562325500,2.323325439453125,0.6927005248546599,-0.7346265264362096,0.06372925258874892
1764585666572279600,2.333279541015625,1.3415163152754306,-0.7699725651055574,-0.6283192380979656
1764585666582233300,2.3432333984375,1.8054443248569965,-0.8993611615628003,-0.9424716967537998
1764585666592188400,2.3531884765625,1.7098638899773357,-0.8096493264555931,-0.6943190659672022
1764585666602142200,2.36314208984375,1.1674094561696051,-0.42200259252190586,-0.259097803170979
1764585666612096300,2.37309619140625,0.5480781189084053,0.03448269983828067,0.13375176010280848
1764585666622050600,2.383050537109375,0.17051088044047355,0.5332961448401212,0.4664999058961868
1764585666632004600,2.393004638671875,0.27674773389101026,-0.13414368202984334,0.0854965554997325
1764585666641958400,2.40295849609375,0.4304115244269371,-0.32095044823288915,-0.12973901733011006
1764585666651912400,2.412912353515625,0.055766895407438274,0.02148936275243759,-0.43944823284149165
1764585666661867300,2.4228671875,-0.9682873982727527,0.28476035995483395,-0.6449091383710504
1764585666671821300,2.4328212890625,-1.766802167251706,0.898531725001335,-0.39545477733612056
1764585666681775400,2.442775390625,-1.9482997211307287,0.7131506076872348,0.13139642914831637
1764585666691729400,2.4527294921875,-1.7931226034224033,0.3438619527429342,1.050116078914702
1764585666701683500,2.462683349609375,-1.4393319618612528,0.458513583317399,1.6025634989485145
1764585666711637500,2.472637451171875,-0.8746452379792928,0.29882103401124477,1.3213199149429797
1764585666721591600,2.482591552734375,-0.16692776125669478,-0.012396540236473083,0.7243854106679558
1764585666731546400,2.49254638671875,0.5025169756948947,-0.33988545032739637,0.423541054135561
1764585666741500400,2.50250048828125,0.9398802189558744,-0.6841974849253892,0.19888824914097786
1764585666751454500,2.512454345703125,1.2249012756735085,-0.990571710795164,-0.4003919414773583
1764585666761408300,2.522408203125,1.8668162006646394,0.17446575554609298,-0.5036798819944263
1764585666771362600,2.532362548828125,1.9330781866014002,0.8877513877898454,-0.23797858890518545
1764585666781316900,2.54231689453125,1.304424309721589,-0.36784254778921605,-0.18521686666309833
1764585666791270700,2.552270751953125,1.140199377682805,-0.48237142876684663,0.5435499739594757
1764585666801226000,2.56222607421875,0.9917214653521775,-0.42020752579867837,0.6160371180213987
1764585666811179800,2.5721796875,1.195343757277727,-0.009780804780125617,0.40251054106652734
1764585666821133800,2.5821337890625,0.5809872858196496,-0.34888767195045944,0.38127003850862384
1764585666831087900,2.592087890625,0.45127311066985126,0.15551555588245392,0.70818465584293
1764585666841042000,2.6020419921875,0.2914075428843498,-0.15909984411001205,0.1470242063909769
1764585666850995700,2.61199560546875,0.4553752852916717,-0.029993571725487708,-0.25170988487675783
1764585666860950800,2.62195068359375,0.47992988083362575,0.08544307174682617,-0.282925984134525
1764585666870904600,2.631904541015625,0.18285948988199233,0.27470482988655565,-0.12146218737214803
1764585666880859000,2.64185888671875,-0.4077934499055147,0.49874505594074725,-0.11867021856606005
1764585666890813000,2.65181298828125,-0.6803314571470022,0.7830342912524938,0.057970104540139435
1764585666900767000,2.66176708984375,-0.853902309679985,0.7646364647746086,0.20724267437979577
1764585666910720800,2.671720703125,-1.0536422072142362,0.8636118027895688,0.42102863292321563
1764585666920674800,2.6816748046875,-1.2953314872056245,0.987735026064515,0.5091961611978709
1764585666930629600,2.691629638671875,-1.4716946008056402,0.8532616736888885,0.3536434881754219
1764585666940583700,2.701583740234375,-0.91038407535851,0.6781880153775215,0.22311522016376256
1764585666950538000,2.7115380859375,0.4670592933446169,0.22812428049743175,0.2436158641397953
1764585666960491800,2.72149169921875,1.6590695222854612,-0.22301731274724004,0.18774331640079617
1764585666970445800,2.73144580078125,2.11144796384871,-0.4817582653045654,0.09962386505156755
1764585666980399900,2.74139990234375,2.0264140574246645,-0.45409284426569935,0.00860474673807621
1764585666990354000,2.75135400390625,1.5369517936140298,-0.38441608144938944,-0.12715060827210545
1764585667000308700,2.761308837890625,0.6757721864074469,-0.11508476129472255,-0.24371844773143528
1764585667010262800,2.7712626953125,-0.046588148173689836,0.22929624688625333,-0.1323904086217284
1764585667020216600,2.781216552734375,-0.14335048631429673,0.3922235403299331,0.32303850655332206
1764585667030171000,2.7911708984375,0.5771083985596895,0.2525584645301103,0.7762930002987385
1764585667040125000,2.801125,1.6089005930155516,-0.03375263199806213,0.8429974693059921
1764585667050079000,2.811078857421875,2.504991939127445,-0.08147416811585426,0.82066785633713
1764585667060032800,2.82103271484375,2.4850270094633102,-0.47209378038048744,0.42633521489873527
1764585667069987800,2.83098779296875,1.945479403012991,-0.6506821688145399,0.07455868963897228
1764585667079941600,2.840941650390625,1.1404711803615093,-0.4116337587207555,0.1755500436514616
1764585667089895700,2.850895751953125,0.6054086103707551,-0.0010287585258483885,0.26456337510049344
1764585667099849700,2.860849609375,0.21907938877642152,0.4569844740539789,0.20670243002325295
1764585667109804000,2.870803955078125,0.1420394037157297,0.5924304708540439,0.3209546860165894
1764585667119757800,2.8807578125,0.2271060433655977,0.17670038273036479,0.23102935428917407
1764585667129711900,2.8907119140625,0.45787528541386124,-0.07236731707453728,0.2427868659697473
1764585667139666700,2.900666748046875,0.4382049547821283,-0.12139935126900672,0.31307839968353507
1764585667149620700,2.910620849609375,0.4898106388568878,-0.04745967031121254,0.10522241571098566
1764585667159574800,2.92057470703125,0.32541327286064625,0.21094518215954303,-0.11718217196539044
1764585667169528800,2.93052880859375,0.1832826837301254,0.6439952383965254,-0.16238777973949908
1764585667179482600,2.940482666015625,-0.11912731468379496,0.9537801494926214,-0.20854864241182802
1764585667189437000,2.95043701171875,-0.516453731110692,1.2005325580924748,-0.5736892377659678
1764585667199391700,2.960391845703125,-0.6962135014116764,1.7643582812309264,-1.0253899261981247
1764585667209345800,2.970345703125,-0.6906669732004403,2.568540574452281,-1.3329444478936492
1764585667219299800,2.9802998046875,-0.512227637848258,3.089813104021549,-1.6511270388484
1764585667229254000,2.99025390625,-0.2583165896654129,3.206482504159212,-1.6322075265839695
1764585667239207700,3.000207763671875,-0.4655506423473358,3.2298324000865217,-1.4954080693483351
1764585667249161700,3.01016162109375,-0.6574713905632495,3.167902890396118,-1.6145090805470943
1764585667259115800,3.02011572265625,-0.5493605599343776,3.2637223947286604,-1.7008718974873422
1764585667269070800,3.03007080078125,-1.2151292387217283,3.8266830254703756,-1.893603962086141
1764585667279025000,3.04002490234375,-1.1354571515917777,4.694019401741028,-2.722213132816553
1764585667288978700,3.049978759765625,-0.24037644382715223,5.730645007702708,-3.7158462770089504
1764585667298932700,3.0599326171875,0.3821791161775589,6.487203379961848,-4.6691418578550214
1764585667308886800,3.06988671875,1.4725281290203331,7.053297048032284,-5.302977813547849
1764585667318840800,3.0798408203125,2.746083253225684,7.542983183726668,-5.436984717455506
1764585667328794600,3.089794677734375,3.9312621748417613,7.9998226963520045,-5.441011488753557
1764585667338750000,3.09975,5.055646728277206,8.606337806659937,-5.334773466259241
1764585667348703700,3.109703857421875,5.745958896690607,9.271025119951366,-5.399587006953358
1764585667358657800,3.11965771484375,6.038360126787424,10.3417552400887,-5.6556023339390755
1764585667368611800,3.12961181640625,6.325310105741024,11.10430262362957,-5.689519801110029
1764585667378566000,3.13956591796875,6.856046629226207,11.389842735785246,-5.588725430974364
1764585667388519700,3.149519775390625,7.319550860437751,11.514170541721581,-5.163416782644391
1764585667398474800,3.159474853515625,7.569571915444731,11.188331152403354,-4.642513670909405
1764585667408428800,3.1694287109375,7.277504447346925,11.010166542339324,-4.145575956651568
1764585667418382800,3.1793828125,6.626706543198227,10.948307759797572,-3.453631218600273
1764585667428337000,3.1893369140625,4.875872929450869,10.70060141147375,-2.454532502478361
1764585667438291000,3.199291015625,2.2280109810024498,11.57174711689949,-0.4557797744393348
1764585667448244700,3.20924462890625,-1.0692290679246186,12.509852142876387,2.4780624311476944
1764585667458199800,3.21919970703125,-4.910979898667335,12.885190014857052,5.276397849658132
1764585667468153600,3.229153564453125,-8.612787421190738,13.741410538351534,7.810324206846952
1764585667478107600,3.239107666015625,-11.197619205230474,14.086460824096202,10.70211064699292
1764585667488062000,3.24906201171875,-11.591876881736516,13.178312544965744,14.061726195812225
1764585667498016000,3.25901611328125,-10.26202762337923,10.817796881312132,18.05958353406787
1764585667507969800,3.2689697265625,-7.921414345547556,7.449106630155444,21.522972761094568
1764585667517923800,3.278923828125,-5.366072859886288,3.32556656422317,23.850749353706835
1764585667527878700,3.288878662109375,-2.891404747352004,-0.21392916640639303,25.897962453532216
1764585667537832700,3.298832763671875,-0.24293833020441233,-2.7298452351301905,27.525551964926716
1764585667547786800,3.308786865234375,2.4630747053742406,-4.730207736453414,28.306005592036247
1764585667557740800,3.31874072265625,5.0363294488668435,-6.069436233052611,28.523969128525255
1764585667567694800,3.32869482421875,7.377122174918651,-6.788486420172452,27.87363475023508
1764585667577649000,3.33864892578125,10.452708016145229,-6.993634314230084,26.128207963967323
1764585667587603700,3.348603759765625,14.371898060399293,-6.8929755531728265,22.639589603137967
1764585667597557800,3.358557861328125,14.953526566731929,-7.811965544313192,16.106147619092464
1764585667607511800,3.36851171875,14.936283170986174,-6.412118620622158,10.8103231844306
1764585667617465900,3.3784658203125,16.04302743831277,-4.284780429202318,4.434304051193594
1764585667627419600,3.388419677734375,17.846187451624868,-2.4464848051011563,-1.3259943364948032
1764585667637373700,3.398373779296875,14.326236379420756,-1.890493136589229,-3.6851767057180402
1764585667647328800,3.408328857421875,10.461032776898145,-0.9298170901030302,-4.34779598056376
1764585667657282800,3.41828271484375,8.017457137241959,-1.2887307737663387,-3.72689754011631
1764585667667236900,3.42823681640625,5.2259436737060545,-1.7359247984290123,-6.880095613333583
1764585667677190700,3.438190673828125,4.374915750418603,-3.8411110715344545,-5.507561059460044
1764585667687144700,3.448144775390625,4.725912961868942,-3.0679145759463307,-6.997847548010945
1764585667697098800,3.4580986328125,5.254008323195577,-4.317175801372528,-4.862751582071184
1764585667707053800,3.4680537109375,3.3547722004413605,-6.576095130857825,-3.6552690587103362
1764585667717008000,3.4780078125,1.101210452466458,-2.759345178119838,-4.464423879647255
1764585667726962000,3.4879619140625,2.934652352926135,-4.367766463185847,-1.737182105013728
1764585667736915700,3.497915771484375,2.31501297262907,-10.258260964322089,0.8081272314548492
1764585667746869800,3.507869873046875,0.40083179419934745,-11.436025810289383,2.8932372234761714
1764585667756823800,3.51782373046875,1.5516501810520886,-5.057844530582428,1.6789496962755917
1764585667766778600,3.527778564453125,-1.370880356925726,0.37354192847460505,1.3325643625348806
1764585667776733000,3.53773291015625,-1.7565315331280231,4.270377517579496,-2.001511671358347
1764585667786687000,3.54768701171875,-6.848778684049845,7.4527733359694475,-5.13212381875813
1764585667796640800,3.557640869140625,-9.168732035690546,9.672025840976834,-3.983997739729285
1764585667806594800,3.5675947265625,-8.370210836970806,13.25301210438013,-1.647361548835039
1764585667816548900,3.577548828125,-8.658673558574915,13.876313514316081,2.173711235538125
1764585667826504000,3.58750390625,-6.666806498396396,12.47823418481946,4.765735561430454
1764585667836458000,3.5974580078125,-2.8887773214578627,9.287069661301373,3.2651340150922534
1764585667846412000,3.607412109375,0.7404464647613466,7.6599010056674475,1.8943729006320238
1764585667856365800,3.61736572265625,4.680072709453106,5.774737247407436,-0.1507844357073307
1764585667866320000,3.62731982421875,6.408218690574169,3.4074458060085773,-1.7462877870112656
1764585667876274000,3.63727392578125,6.810633954572677,2.8950965876072643,-2.444731823953986
1764585667886229000,3.64722900390625,4.8685365952134125,2.472309858970344,-2.734600320702791
1764585667896183000,3.65718310546875,3.379808442020416,1.5842466287523507,-2.6424656423628328
1764585667906137000,3.66713720703125,2.159275152298063,0.8866185843676329,-3.35764512552917
1764585667916091000,3.6770908203125,0.6950972107328474,0.3199363027542829,-4.1645910382449625
1764585667926045000,3.687044921875,-0.03666793492287397,0.03822130184471607,-4.508367066270113
1764585667935999700,3.696999755859375,-0.2559811324551701,-0.2453171150997281,-4.659928916090727
1764585667945953800,3.706953857421875,-0.2299324989631772,-0.6717945149481296,-4.7392584733933205
1764585667955907800,3.716907958984375,-0.2270668803989887,-0.9773615160882473,-4.4551089388132095
1764585667965862100,3.726862060546875,-0.4527604266181588,-1.3598451681703327,-4.2514474839210505
1764585667975816000,3.73681591796875,-1.334952426715195,-2.063752146694064,-4.337165865477919
1764585667985770000,3.74677001953125,-1.5738919696070253,-2.3497049313038585,-3.222215495342016
1764585667995724800,3.756724853515625,-1.2267575710646808,-1.8958020566523075,-1.092764841812849
1764585668005678800,3.766678955078125,-0.10225333677232265,-1.9164590602338314,2.787573785999417
1764585668015633000,3.7766328125,-0.1916597591921687,-2.181577731129527,6.32013182632029
1764585668025587000,3.7865869140625,-1.4506196640729903,-1.8673732500255107,8.283437977924942
1764585668035540700,3.796540771484375,-2.0252409219920633,-1.406556065940857,8.863353250598907
1764585668045495000,3.8064951171875,-1.8587354778006673,-1.338695412635803,8.506842828685045
1764585668055449900,3.816449951171875,-0.8614812205016612,-1.145152616176009,7.7420789381384845
1764585668065404000,3.82640380859375,0.9113315853416919,-0.12715280022919176,6.874824979454279
1764585668075358000,3.83635791015625,0.9518459665596485,0.9812491711765527,5.266297895926237
1764585668085312000,3.84631201171875,3.602715864652395,2.9846389113664626,3.092060298426449
1764585668095265800,3.856265869140625,7.848419836485386,4.443792595028877,0.8063780496999621
1764585668105221000,3.86622119140625,1.5919346990369259,4.471382612743973,-0.5895936399929225
1764585668115175000,3.8761748046875,0.825109857372567,4.692433593854308,-3.1235645669758316
1764585668125129000,3.88612890625,-0.07593041638359427,4.966909291160106,-4.384425044780969
1764585668135083000,3.8960830078125,-0.5544973383009434,4.456642724251747,-4.551830944943428
1764585668145037000,3.906037109375,-1.1044925428770482,1.9714894580602644,-1.5188177326388657
1764585668154990800,3.915990966796875,-1.5823274972580372,-1.7339689881861209,1.4164547980122268
1764585668164946000,3.92594580078125,-1.6652502567470073,-3.016992197960615,1.1688207842722536
1764585668174899700,3.935899658203125,-1.3266051618695258,-3.07200038395524,0.8271466969624162
1764585668184854000,3.94585400390625,-0.6675121614538133,-2.385557165929675,0.27086598237603904
1764585668194808000,3.95580810546875,-0.5539408734619617,-1.8434511071681976,0.04997720609009266
1764585668204761900,3.965761962890625,-0.41247152471914883,-1.6826275080054998,-0.1909913584113121
1764585668214717000,3.975717041015625,-0.17455241091623902,-0.22485212695896625,-0.7356848033174872
1764585668224671000,3.9856708984375,-0.28749022331014273,0.43985038390159603,-0.9251037247803061
1764585668234624800,3.995624755859375,-0.1995278622187674,1.055222169882059,0.1631102487951517
1764585668244578800,4.005578857421875,-0.26796368506327267,2.0437959848582743,0.007428104174137115
1764585668254532900,4.015532958984375,-0.12223390239700674,2.3156793275833127,-1.196174143687263
1764585668264488000,4.025488037109375,-0.09307678149566054,1.9084043485939501,-1.5529408053845166
1764585668274442000,4.03544189453125,-0.14814473485350607,1.2438643348187208,-1.4918891014419495
1764585668284396000,4.04539599609375,-0.15662030225396156,0.9004466187119483,-1.5800769418522715
1764585668294349800,4.055349853515625,-0.2729167774260044,0.8011141378223896,-1.8245628668248652
1764585668304303900,4.065303955078125,-0.6072049922682344,0.5310270308643579,-1.9991443577051162
1764585668314258700,4.0752587890625,-0.8861657260335981,0.39702012695670125,-1.8429579168237744
1764585668324213000,4.085212890625,-0.9392027580857276,0.26174130341708657,-1.2941780793868005
1764585668334167000,4.0951669921875,-0.41377369335889813,0.04935819740891456,-0.9365234558738768
1764585668344121000,4.10512109375,0.3557410449765622,-0.25965046861767765,-0.7515145328730344
1764585668354075000,4.115074951171875,1.3894422879241406,-0.6145446875065564,-0.4404178085260093
1764585668364030000,4.125030029296875,2.135987946343422,-0.911823752772808,0.1576589245866984
1764585668373983700,4.134983642578125,2.151585474578291,-1.3889958593308924,0.9298677973769605
1764585668383937800,4.144937744140625,2.0294531328596173,-1.927728057745099,2.1488398291319606
1764585668393891800,4.154891845703125,1.7540835554540157,-1.2931822002172468,2.7878414970248935
1764585668403846100,4.16484619140625,0.9060204733215272,-0.3213455850303173,2.3739349710665643
1764585668413800000,4.174800048828125,-0.1085144429937005,0.02031739636361599,1.6975084124036133
1764585668423755000,4.184755126953125,-0.21355857952833174,-0.32697628439366816,1.2481700691886246
1764585668433708800,4.194708740234375,-0.5557997992016375,-1.0954624103337525,0.7616409362204373
1764585668443662800,4.204662841796875,-0.45248058676347136,-1.8457371722787617,-0.08696209800764917
1764585668453617000,4.214616943359375,-0.19662614942789078,-1.9854881727963685,-0.09561769815012812
1764585668463571000,4.224571044921875,0.13335866913199423,-1.0794441724687813,-0.32773309411033985
1764585668473526000,4.234526123046875,0.5658462691806256,0.4738198735207319,-0.8449702306836843
1764585668483480000,4.24447998046875,0.8008017108723521,0.6044985097885132,-0.8317327095784246
1764585668493433900,4.254433837890625,0.39680969907641406,0.6221931564331055,-0.701945323061943
1764585668503388000,4.264387939453125,1.2202198398590087,1.3195353696137666,-1.26669824404791
1764585668513342000,4.274342041015625,1.6275285749875008,0.8796937535405158,-1.026035969016701
1764585668523296800,4.284296875,1.3210263388238845,0.6799561940938234,-0.34107144524157046
1764585668533250800,4.294250732421875,1.032685343903303,1.2110843472450972,-0.8343935993507504
1764585668543205000,4.304205078125,0.4767267008781433,1.7939783434689043,-1.9229259181603788
1764585668553159000,4.314158935546875,-0.4812709201790392,1.1054442906439303,-2.2086606761053202
1764585668563113000,4.324113037109375,-1.77483291349411,-0.34338322931528087,-2.8832670336037873
1764585668573067800,4.33406787109375,-2.102822174322605,-0.7292021632999182,-2.979529605528712
1764585668583021800,4.344021728515625,-2.0831588579535483,-0.8025503081053494,-2.6694045026928186
1764585668592976000,4.353975830078125,-2.4097419052459297,-1.181802138659358,-2.5540537839382886
1764585668602930000,4.363929931640625,-2.874880898052454,-1.2170043849438428,-2.5435873349815608
1764585668612884000,4.373884033203125,-2.80345816835165,-0.1938631144553423,-2.4900918916374444
1764585668622839000,4.383839111328125,-2.4450899897418914,0.7553378905534743,-1.9168693946003912
1764585668632792800,4.393792724609375,-1.8699520144723354,0.781172589033842,-1.1897554357513784
1764585668642747000,4.403746826171875,-0.45563262105360625,0.5266910474866628,-0.37472953082397575
1764585668652701000,4.413700927734375,1.3134300384759903,-0.10088672459423541,0.48907121866643427
1764585668662655700,4.42365576171875,3.076934917747974,-0.672060472407937,1.5030676441907882
1764585668672610000,4.433610107421875,4.781811082440615,-0.4980184952318668,2.3201399602539836
1764585668682564000,4.443564208984375,5.506275695824622,0.18187398597598076,2.321357519350201
1764585668692518000,4.453517822265625,5.089741890102625,0.37202012573480603,2.4997072767227886
1764585668702472000,4.463471923828125,4.31554849243164,-0.6497334897875785,3.379638930672407
1764585668712427000,4.473427001953125,2.6320471242010592,-2.331900394544005,3.7917873609170316
1764585668722380800,4.483380859375,1.8520156680263578,-0.3241565507978201,2.1339216614633796
1764585668732334800,4.4933349609375,-0.0585140021584928,1.1566250273048877,0.11481412765979766
1764585668742289000,4.503288818359375,-0.8352396947860717,0.23372575376629828,0.43284357387945055
1764585668752243000,4.513242919921875,-1.2219896260105072,0.9460381570637225,-0.028784342066198586
1764585668762198000,4.523197998046875,-1.8738404002130031,1.8050450964063405,-0.9975275212824344
1764585668772152000,4.533152099609375,-1.8878782779157162,0.7407137373954057,-0.15000906742066145
1764585668782105900,4.54310595703125,-1.6388006412386893,-0.7455500715106725,0.6438273344837129
1764585668792060000,4.553059814453125,-1.4901017796337603,-1.0068956536084412,0.7282740886695682
1764585668802014000,4.563013916015625,-1.1716624374389648,0.09649930329024792,0.25959683873429895
1764585668811969000,4.572968994140625,-0.5447556964874267,0.935845264351368,-0.030375629845634102
1764585668821923000,4.582923095703125,-0.19557517907023428,0.3041360915541649,0.13539536259137094
1764585668831877000,4.592877197265625,0.2499111648917198,0.8729536316305399,-0.45236718951687216
1764585668841831000,4.602830810546875,0.25637831507921216,0.9984686015248299,-0.5952912671126425
1764585668851785000,4.612784912109375,0.3152677264213562,0.1247901627510786,0.11883563826084136
1764585668861739800,4.62273974609375,0.5978267769396305,-0.26203531792759893,0.2230594713885337
1764585668871693800,4.63269384765625,0.780555333918333,-0.4949649528801441,0.43188773445934053
1764585668881647900,4.64264794921875,0.7533808382015675,-0.5988613806843758,0.491934499143064
1764585668891602000,4.652601806640625,0.5010006528478116,-0.5667559313714504,0.48519101623222227
1764585668901556000,4.662555908203125,0.2766026993971318,-0.43835634595155715,0.4850756462242454
1764585668911511000,4.672510986328125,0.25152444530725476,-0.30180852538943287,0.5467556381329893
1764585668921464800,4.68246484375,0.27905184611491857,-0.3473755138218403,0.6855089328501374
1764585668931419000,4.6924189453125,0.3316284210484475,-0.39726854875981804,0.8035495482757687
1764585668941373000,4.702373046875,0.36288287955522536,-0.5371680178374052,1.0075892618957907
1764585668951328000,4.712327880859375,-0.25544183794669806,-0.5453074851512909,1.3845064389571546
1764585668961282000,4.722281982421875,-2.2131495119571682,-0.1792570814758539,0.4533962403036654
1764585668971236000,4.732236083984375,-4.06748441671133,0.12850363031625747,-0.2958786969490349
1764585668981190000,4.74218994140625,-3.324208719873428,0.2350800909847021,-0.06090659638345241
1764585668991144000,4.75214404296875,-0.3180242951205,0.2213245373547077,-0.005707344796136021
1764585669001098800,4.7620986328125,1.2965887937903404,0.498005051228404,-0.10229381491318344
1764585669011052800,4.772052734375,2.089988411712646,0.8591676828622817,-0.023134061219543218
1764585669021006800,4.7820068359375,2.0567513280212877,0.9956067823529243,-0.13190394027903676
1764585669030961200,4.791961181640625,2.1498867078363895,0.9948609324216842,0.253022063453868
1764585669040915000,4.8019150390625,1.9036381571054457,0.8425847968518734,0.06323233591727911
1764585669050870000,4.8118701171875,1.611691685038805,0.5698141498982906,-0.09444719306603074
1764585669060823800,4.82182373046875,1.2839993613302707,0.3667617668151855,-0.22255554045438766
1764585669070777900,4.83177783203125,0.608843772451207,0.23253800528645513,-0.4879954061284661
1764585669080732000,4.84173193359375,0.0008966565787792205,0.40874914319515226,-0.7511546135194599
1764585669090686000,4.85168603515625,-0.2607552515218034,0.5463245532393455,-0.5798171460617333
1764585669100641000,4.86164111328125,-0.7380489021003246,0.4918056120663881,-0.5283816309221089
1764585669110595000,4.871594970703125,-1.3879565794110298,0.26456571318805217,-0.32321729718632997
1764585669120548900,4.881548828125,-1.595351960134506,0.07200608254671097,-0.39956740028671917
1764585669130503000,4.8915029296875,-1.5354969186305998,0.00012625672817230223,-0.3691433281894773
1764585669140458000,4.9014580078125,-1.2997042954623699,-0.05816518872082233,-0.41366307259127494
1764585669150411800,4.911411865234375,-1.0674632272958755,0.05419628508985042,-0.4606785793315619
1764585669160365800,4.92136572265625,-0.9039408905684947,0.23660335502922533,-0.5761296897206455
1764585669170320100,4.931320068359375,-0.5962707431366667,0.41614276057779787,-0.3586833820387721
1764585669180274000,4.94127392578125,-0.1733914225791581,0.5245744937241077,-0.3460278255399316
1764585669190229000,4.95122900390625,0.02058919904232025,0.7864677728325128,-0.36952977022379635
1764585669200183000,4.96118310546875,0.5089174903869629,0.9742682262480258,0.09924261064901947
1764585669210136800,4.97113671875,0.8754699983656405,1.2115981419861317,0.3350311421640217
1764585669220091000,4.9810908203125,1.4742682506859301,0.7467220378994941,1.0253582158856094
1764585669230045000,4.991044921875,1.0933026019513605,0.5824053359240293,0.7280057931222021
1764585669240000000,5.001,0.47263680121600626,0.6210176829129457,1.1929317276999354
1764585669249954000,5.0109541015625,0.3449532551109791,0.6324293037652969,1.597442794933915
1764585669259907800,5.020907958984375,0.38471594117879865,0.6828232739627361,1.8546270195685326
1764585669269862000,5.03086181640625,0.5543032770335674,0.046290626531839366,2.2842725280590352
1764585669279817000,5.04081689453125,0.4504571181118488,-0.22553309496045112,2.4184281927876174
1764585669289770800,5.050770751953125,0.3110819651693105,-1.711396506372094,2.6081723276168107
1764585669299724800,5.060724853515625,0.4487286868840456,-2.7317408396184444,2.098652925813943
1764585669309679000,5.07067919921875,0.29183599742949007,-2.732825127723813,1.320069914881885
1764585669319633000,5.0806328125,-0.1066121165037155,-1.0525824690282344,-0.05593669901639223
1764585669329588000,5.090587890625,0.039284560861787755,-0.4628489821732044,-0.01638049530610442
1764585669339542000,5.1005419921875,0.09513680103169754,-0.3528764493256807,-0.23339666794240474
1764585669349495800,5.110495849609375,0.07642742438660934,0.17750877650380134,-0.3296403890363872
1764585669359449900,5.120449951171875,0.08550618184460326,0.009825228443741799,-0.29748291727527976
1764585669369404000,5.13040380859375,0.15373744029402733,-0.8974310702830552,-0.05657397400662303
1764585669379359000,5.14035888671875,0.35302784049510955,-1.2912941945135592,0.14165566509515046
1764585669389313000,5.15031298828125,0.4391945503413677,-1.6902403210967778,0.32117329720333215
1764585669399267000,5.16026708984375,0.43474045700933783,-1.1372492957055569,0.1806632950119674
1764585669409220900,5.170220947265625,0.2241886763478629,-1.0994780757158995,0.27186960646063085
1764585669419176000,5.180176025390625,-0.05193356432225555,-0.09361702585220337,-0.24528905804902312
1764585669429129700,5.190129638671875,-0.5258732648303732,0.6342430751889944,-0.39039150259718297
1764585669439083800,5.200083740234375,-0.7942577691216022,0.943566213992238,-0.4632739295870065
1764585669449038000,5.2100380859375,-0.9952116455554961,1.2190262461602688,-0.5625495657227934
1764585669458992000,5.2199921875,-1.1291992602407932,1.7026619957745075,-0.5935333175294101
1764585669468947000,5.229947021484375,-0.8736006973624229,1.3641098398774862,-0.32114772437065836
1764585669478901000,5.23990087890625,-0.29739187799096106,0.31064649636149405,0.2727681627355516
1764585669488854800,5.249854736328125,0.11107786374092102,-0.2770107687413692,0.707015319802612
1764585669498808800,5.259808837890625,0.2260170425524935,-1.3303566233575344,1.4690863180033862
1764585669508764000,5.269763916015625,0.6224947697281837,-1.4096838425725697,0.875454508535564
1764585669518718000,5.279718017578125,-0.2933656912147999,2.169613737091422,-0.4573126830950379
1764585669528672000,5.289672119140625,-0.41837271158695216,3.5413656161546707,-0.9115754771001636
1764585669538626000,5.2996259765625,0.6079296532809734,-0.18035715167224406,0.6642202803015709
1764585669548579800,5.309579833984375,1.2466437364041805,-1.294510233950615,1.1771774014681577
1764585669558535000,5.319534912109375,0.9731086078841239,-0.6350427011340856,1.0798957156285642
1764585669568489000,5.329489013671875,0.803640441429615,-0.004103343665599822,0.25939313285574317
1764585669578442800,5.33944287109375,0.598728036628291,-2.552200265026092,0.7728494357161223
1764585669588397000,5.34939697265625,0.07043013846687972,0.2214770975679159,-0.7554192852266133
1764585669598352000,5.359351806640625,-0.8298750259477645,3.29650998108685,-1.7436583152905105
1764585669608306000,5.369305908203125,-0.691497578805685,-1.9404484231084584,-0.0271041338942945
1764585669618260000,5.379260009765625,0.35860768645405766,-4.318485130405426,1.296194241514802
1764585669628213800,5.3892138671875,0.4572667981266975,-3.0942250752449034,1.0331797032915055
1764585669638167800,5.399167724609375,0.37222003222107886,-2.661232886675,1.0769864040531218
1764585669648123100,5.409123046875,0.37081601064205166,-2.644175368890166,1.1582454681135714
1764585669658077000,5.419076904296875,0.4033165236871689,-2.6640719094932077,1.2543011192895472
1764585669668031000,5.429031005859375,0.37457572850175197,-2.3814941542744634,1.117527381017059
1764585669677985000,5.438985107421875,0.31850247055888176,-1.601376042729616,0.6739366415433585
1764585669687938800,5.448938720703125,0.2537501585327089,-0.7072913602650165,0.3009621376931667
1764585669697894000,5.458893798828125,0.13841587945632636,-0.24376082556843756,-0.06939706909209489
1764585669707848000,5.468847900390625,-0.032805852667242286,0.12433949637413025,-0.5716911958165466
1764585669717801700,5.4788017578125,-0.34351657337136565,1.0231599751889706,-1.1342444878663867
1764585669727756000,5.488756103515625,-0.9621908349633216,2.1032611502617597,-1.609241515407711
1764585669737710800,5.4987109375,-1.6304232735157012,2.7304385248482226,-1.6775737317472694
1764585669747665000,5.508664794921875,-1.8943804994165896,2.524713123163581,-1.6345651956260203
1764585669757619000,5.518618896484375,-1.2677648503661154,1.876656626677513,-1.1875679356444626
1764585669767573000,5.528572998046875,-0.0966261445403099,1.0153682983994483,-0.5559313896920531
1764585669777527600,5.538527587890625,0.7411409498315304,0.3658154258757829,-0.13620755575709045
1764585669787481600,5.548481689453125,1.1789139429371804,0.16358137343823909,0.05834544065855443
1764585669797435600,5.558435546875,1.0680652848422527,0.181235688072443,0.09259813113324343
1764585669807389400,5.568389404296875,0.7876022567551583,0.22684534660279748,0.07949198132269084
1764585669817343500,5.578343505859375,0.5227518814068287,0.20609131238758563,0.05822283719219267
1764585669827298600,5.588298583984375,0.31115963351540266,0.18741525349020957,0.08154686802588403
1764585669837252600,5.598252685546875,0.14094342517256736,0.27795067993998523,0.021135653943940996
1764585669847206700,5.60820654296875,0.06308620544485748,0.26473756262362,0.03782843006961047
1764585669857160400,5.618160400390625,0.06134791041016578,0.30820144129693505,0.05035846049264073
1764585669867114500,5.628114501953125,0.1035667574584484,0.32324820378124713,0.12062171796001493
1764585669877069800,5.63806982421875,0.13361593182869255,0.4043360029280185,0.1371023126397282
1764585669887023600,5.648023681640625,0.11454415161199867,0.541407555103302,0.1639602166879922
1764585669896977700,5.657977783203125,0.16502448491863905,0.36585400432050225,0.27873488912023603
1764585669906931700,5.667931640625,0.4199194295722991,0.12246902632713318,0.5424097178831696
1764585669916886500,5.677886474609375,0.6447521942436695,0.3741618139386177,0.7090186955142765
1764585669926840600,5.687840576171875,0.5870785153668373,0.6168365978360175,0.8267534598611295
1764585669936794600,5.697794677734375,0.44021161842942236,0.627139965185523,0.86397332957834
1764585669946748400,5.70774853515625,0.3199077342469245,0.6284183145582676,0.9044096771240234
1764585669956702700,5.71770263671875,0.19964926010873169,0.703058837261796,0.843510387264192
1764585669966657500,5.727657470703125,-0.025271255911327898,0.5770967081218957,0.7487582199022174
1764585669976611600,5.737611572265625,-0.24750293470621107,0.4106938475221395,0.48207909475676713
1764585669986565600,5.747565673828125,-0.454680836754106,0.1650707352131605,0.07630129552260041
1764585669996519700,5.757519775390625,-0.47599254138469693,0.013658522996306419,-0.30972364589553325
1764585670006474500,5.767474609375,-0.3285387479374185,-0.14831073907017708,-0.6808626414142549
1764585670016428800,5.7774287109375,-0.11651044671628623,-0.4145090218961239,-1.0283245914105326
1764585670026382600,5.787382568359375,0.12689615858700126,-0.5775929672062396,-0.9398608566682786
1764585670036336600,5.797336669921875,0.3123451169729233,-0.7712456537812947,-0.6914559316210448
1764585670046290700,5.807290771484375,0.47300333297345787,-0.9166232620090246,-0.46915758079811926
1764585670056245500,5.81724560546875,0.5729425110518932,-0.9442840068727731,-0.2652963290175423
1764585670066199600,5.827199462890625,0.6748807905256747,-0.7319447400063276,-0.10307367671187967
1764585670076153600,5.837153564453125,0.7662310404896736,-0.2636994517475366,0.005726086029224097
1764585670086107400,5.847107421875,0.7559902169823646,0.003036591216921806,0.10955894707795232
1764585670096062700,5.857062744140625,0.68675820225887,-0.06685761374235152,0.2028029383666813
1764585670106016500,5.8670166015625,0.689834029507637,-0.09587035773694515,0.17474351304154842
1764585670115970600,5.876970458984375,0.6979998003065586,0.15526947216689585,0.05607000653985887
1764585670125924600,5.886924560546875,0.6737316204905509,0.2735620895922184,-0.016627894195914268
1764585670135878700,5.896878662109375,0.6147883600693196,0.17971768472492694,0.044200230123847724
1764585670145833500,5.90683349609375,0.5429810514977201,0.20337211655676363,0.0904193623220548
1764585670155787800,5.916787841796875,0.43232408004999157,0.38714696771800516,0.12599007659275083
1764585670165741600,5.926741455078125,0.30839374899864197,0.5126876565754414,0.182297581682913
1764585670175695600,5.936695556640625,0.23439448334071783,0.5644377175569534,0.1763189821973443
1764585670185650700,5.946650634765625,0.2514449503302574,0.5852028576880693,0.12633121818061918
1764585670195604500,5.9566044921875,0.30052838591840114,0.7330155841082334,0.06379742245413363
1764585670205558500,5.96655859375,0.29302538987714793,0.8308668865293264,0.03358827174920589
1764585670215512600,5.9765126953125,0.2538075512757525,0.8129033598154782,-0.019659772705100477
1764585670225466400,5.98646630859375,0.1708077810278162,0.788362208276987,-0.06549441736405714
1764585670235421700,5.996421630859375,0.04533431218769401,0.7195563830763101,-0.09044741937275975
1764585670245375700,6.006375732421875,-0.0775123152801767,0.6874649622887372,-0.12734770174678414
1764585670255329500,6.01632958984375,-0.22331304429080337,0.7137865675032138,-0.18713652788037433
1764585670265283600,6.02628369140625,-0.362712235696055,0.7591489732742309,-0.20737433793544768
1764585670275238400,6.03623828125,-0.4988718971908092,0.7699801638901234,-0.25754964214721693
1764585670285192400,6.0461923828125,-0.6594459055066109,0.6817495072513818,-0.24389272658610714
1764585670295146800,6.056146728515625,-0.7658791583120822,0.3679933544367552,-0.226827153358981
1764585670305100800,6.066100830078125,-0.7848340341508389,0.1356266140639782,-0.2524476063004695
1764585670315054600,6.0760546875,-0.7779249854147434,0.09504384378492832,-0.27900407971674573
1764585670325009700,6.086009765625,-0.7628606872737407,-0.05350713378190994,-0.26423704748926685
1764585670334963500,6.09596337890625,-0.747990450400114,-0.10516016412973403,-0.2873518925516866
1764585670344917500,6.10591748046875,-0.7015969480156898,0.02691080327928066,-0.3348406610932201
1764585670354871600,6.11587158203125,-0.6262462312161922,-0.01996434514224529,-0.3385643943240866
1764585670364826600,6.12582666015625,-0.5177823493659496,-0.3228583276808262,-0.3083859675509855
1764585670374780700,6.13578076171875,-0.3913549408018589,-0.6839701059103012,-0.23304633840108288
1764585670384734700,6.145734619140625,-0.2978734874954447,-1.0047001893907785,-0.09235120716746896
1764585670394688500,6.1556884765625,-0.16407642694618552,-1.2437567827910183,0.04680590084390714
1764585670404642600,6.165642578125,-0.0460626629948616,-1.4036755420684814,0.10646300862291827
1764585670414597600,6.17559765625,0.05613748228549957,-1.4066279621332882,0.14610221444154156
1764585670424551400,6.185551513671875,0.15461309061739592,-1.1961667640984057,0.17198919109841806
1764585670434505700,6.195505615234375,0.2595195357143879,-1.0668892268002033,0.13138601735215633
1764585670444459800,6.205459716796875,0.357208341050148,-1.1546499278396367,0.04892095676911994
1764585670454414600,6.21541455078125,0.40959089124891906,-1.264651102259755,0.024077771810442208
1764585670464368600,6.22536865234375,0.41129064437150953,-1.4968839871197939,0.13324507095599547
1764585670474322400,6.235322509765625,0.4200970511615276,-1.688400830709934,0.35152795732617376
1764585670484276500,6.2452763671875,0.4442447829356417,-1.6922662739664316,0.5346494956778363
1764585670494230500,6.25523046875,0.46529929793477054,-1.627892878255248,0.7112735617689788
1764585670504185600,6.265185546875,0.5229343253016472,-1.5150421596229076,0.8279374089486896
1764585670514139600,6.2751396484375,0.6055389587521552,-1.2151742469072342,0.899125380045548
1764585670524093700,6.28509375,0.6734849522531032,-0.8041600813895463,0.9326095703657716
1764585670534047500,6.295047607421875,0.7646960860073566,-0.4850286652773618,0.8714805634032934
1764585670544002600,6.30500244140625,0.8825637560188769,-0.3009697364777326,0.7312975281439721
1764585670553956600,6.31495654296875,1.019490346765518,0.03081073332726955,0.4563547613156959
1764585670563910400,6.324910400390625,1.0664414830327034,0.5705880568802356,0.22624500608947126
1764585670573864700,6.33486474609375,1.0008698174476622,1.0772995616555214,0.13343852943517268
1764585670583818800,6.34481884765625,0.8675415434539318,1.3895137457251547,0.10781155542135239
1764585670593773600,6.354773681640625,0.64918988443017,1.4876327591717242,0.1033989448771812
1764585670603727600,6.3647275390625,0.35270280979182567,1.3940940592527389,0.11484145405814052
1764585670613681700,6.374681640625,0.10609538088692351,1.2058499537229537,0.10487241496322676
1764585670623635500,6.384635498046875,-0.11408347529768943,0.878425341039896,0.1039417465169914
1764585670633590800,6.3945908203125,-0.33700956609752025,0.5557593210607766,0.07698085701828822
1764585670643544600,6.404544677734375,-0.4861959554910659,0.13685820168554783,0.09456793336886912
1764585670653498600,6.41449853515625,-0.5382043751478195,-0.34622575926482674,0.11966827142639085
1764585670663452700,6.42445263671875,-0.5623696791112422,-0.7483189517021179,0.1758495197883807
1764585670673406700,6.43440673828125,-0.5057879601895809,-0.9594377368628978,0.2266603088920936
1764585670683361500,6.444361572265625,-0.46911038065552707,-1.1309095712900161,0.17000683990847318
1764585670693315600,6.454315673828125,-0.4484791325697675,-1.2683330056428908,0.037575240759830916
1764585670703269400,6.464269287109375,-0.3541442773044109,-1.3272709323018788,-0.14600492807952686
1764585670713223700,6.4742236328125,-0.16590835508108137,-1.274155428186059,-0.29417160077020527
1764585670723178800,6.4841787109375,0.06357610785365105,-1.0751233866602181,-0.29472401048857716
1764585670733132500,6.494132568359375,0.26721889457795767,-0.9248562528252601,-0.23107637176867574
1764585670743086600,6.504086669921875,0.4035316642751917,-0.9542781621426344,-0.17243556489273903
1764585670753040600,6.51404052734375,0.5196563265442848,-0.9003355595529079,-0.1533317090373486
1764585670762994400,6.523994384765625,0.5456792410731315,-0.5053548294693231,-0.10440569250062108
1764585670772949800,6.53394970703125,0.518961878006719,-0.07473755333721638,-0.03757881182325072
1764585670782903600,6.543903564453125,0.48897594159841534,0.26567338216900827,0.022496822761930525
1764585670792857600,6.553857666015625,0.46849429458379743,0.6602613135427237,-0.003712746045971289
1764585670802811600,6.563811767578125,0.3693254798233509,1.1167869379132986,-0.05061806127689779
1764585670812766700,6.5737666015625,0.24790979847405104,1.5484586915343999,-0.07287627124367281
1764585670822720800,6.583720703125,0.16347911864016204,1.7882956216573713,-0.07517096718526445
1764585670832674800,6.5936748046875,0.10754621901605278,1.817170418485999,-0.10118978092772886
1764585670842628600,6.603628662109375,0.06083586923480033,1.6036615233182907,-0.027109266727138308
1764585670852582700,6.613582763671875,0.07345569683313369,1.1940151390224694,0.0826803564346861
1764585670862537700,6.623537841796875,0.09631981853749602,0.8382599193900823,0.15202681871755047
1764585670872491500,6.633491455078125,0.13799975466979666,0.5255927308559417,0.24317601141780612
1764585670882445600,6.643445556640625,0.17468781906524672,0.140932903778553,0.2531035859911702
1764585670892399900,6.65339990234375,0.11207388904094695,-0.01707446891963482,0.20937062631919978
1764585670902354700,6.663354736328125,0.04943418525457382,-0.20055238296091554,0.11678732742890714
1764585670912308700,6.673308837890625,0.04096563211679458,-0.3268751621067524,-0.017409925118810496
1764585670922262800,6.6832626953125,0.06454992132186889,-0.3183633543491363,-0.07832396958977915
1764585670932216600,6.693216552734375,0.08849895218610764,-0.4786410100668668,-0.1502039324056357
1764585670942170600,6.703170654296875,0.07114102668259292,-0.5611363379240035,-0.2565153671960346
1764585670952125700,6.713125732421875,0.023127229619957505,-0.4575391853272915,-0.3325280367692932
1764585670962079700,6.723079833984375,0.0012882679785601793,-0.2366530393898487,-0.38804073821995405
1764585670972033800,6.73303369140625,-0.010595007239840925,0.21481647063493728,-0.37094869711101053
1764585670981987800,6.74298779296875,0.008718765039183198,0.5965671322673559,-0.3030458486320451
1764585670991942700,6.752942626953125,0.040464112335443496,0.8286907115340232,-0.16020382329653948
1764585671001896700,6.762896728515625,0.07238021308872848,1.0135381603628397,0.049385788668738675
1764585671011850500,6.7728505859375,0.1663408830131404,1.0788263328313827,0.26168570077233017
1764585671021804500,6.782804443359375,0.2783762484082952,1.0378671304553746,0.44720158691462125
1764585671031758800,6.7927587890625,0.36988662083745,0.9126566964656114,0.6078672190366312
1764585671041713700,6.802713623046875,0.4936275667965412,0.5413046792507171,0.7093098604805768
1764585671051667700,6.812667724609375,0.628294395917654,-0.09097732499837875,0.7446108178991824
1764585671061621800,6.822621826171875,0.6811129629135132,-0.5809042837113142,0.8026264420814812
1764585671071575600,6.832575439453125,0.7149392446696757,-0.9398504083395004,0.8361034720085561
1764585671081530600,6.842530517578125,0.7854559654414653,-1.3225345514297484,0.7863627050228417
1764585671091484700,6.852484619140625,0.8565373343586922,-1.5675024147003889,0.6935519540522247
1764585671101438700,6.862438720703125,0.9143044636726378,-1.6856927407950162,0.5725864276232198
1764585671111392800,6.872392822265625,0.9554548047065734,-1.7720044120699165,0.4851383727295324
1764585671121346800,6.882346923828125,0.986727894848585,-1.8595260436564682,0.32677831413615493
1764585671131301600,6.892301513671875,1.0076023405730723,-1.9325936179548502,0.1455795605406165
1764585671141255700,6.902255615234375,0.8758207114994525,-1.9858517454117535,0.16038347244607284
1764585671151209500,6.91220947265625,0.6445756686329841,-1.9757506226360797,0.258690574076958
1764585671161163500,6.92216357421875,0.4546621685862541,-1.646216470453143,0.22310484490022062
1764585671171118800,6.932118896484375,0.36484687310457226,-0.6593050357311964,0.11870081463372334
1764585671181072600,6.94207275390625,0.33843466699719427,0.2884755810856819,0.01469999487325549
1764585671191026700,6.952026611328125,0.35928335722591725,0.7540589566588402,-0.0921270247564651
1764585671200980700,6.961980712890625,0.37754035046100615,1.117366199105978,-0.14342973469612189
1764585671210934500,6.9719345703125,0.49997426894214003,1.5621429334938526,-0.1940136653745547
1764585671220889600,6.9818896484375,0.6334428647220134,1.8543495178014038,-0.18338811686597764
1764585671230844000,6.991843994140625,0.7517302214503288,1.9467180048972368,-0.14709978324468248
1764585671240797700,7.001797607421875,0.8590975402355193,1.9100322420567273,-0.11770594011116772
1764585671250751700,7.011751708984375,0.8324012564897537,1.7700199602544306,-0.09351511811399832
1764585671260706600,7.02170654296875,0.6349743120729923,1.5234908390164374,-0.12294153920970856
1764585671270660600,7.03166064453125,0.2929004117906093,1.167685935023427,-0.08900253606038168
1764585671280614700,7.04161474609375,-0.06303250249624252,0.8478647830814122,-0.1255908481420949
1764585671290568700,7.051568603515625,-0.38593872443940486,0.5988865151256323,-0.10099570139404386
1764585671300522500,7.0615224609375,-0.6351274568080901,0.21248364377319812,0.03830852347044274
1764585671310477800,7.071477783203125,-0.7475847922086716,-0.056762920707464214,0.1509391513450071
1764585671320431600,7.081431640625,-0.7764180879831314,-0.36641105368137356,0.23629246244914828
1764585671330385700,7.0913857421875,-0.7503916663229465,-0.7220446927607059,0.23958845352092756
1764585671340339700,7.101339599609375,-0.7436486218035221,-0.9303986893832683,0.16146207972932605
1764585671350294500,7.11129443359375,-0.7594447413504123,-1.134554065272212,0.08837801095386967
1764585671360248600,7.12124853515625,-0.7016986548244952,-0.9912263753116131,-0.06843841666039079
1764585671370203000,7.131202880859375,-0.5731190366625786,-0.7955898214429616,-0.2516899380672723
1764585671380156700,7.14115673828125,-0.33116905990839,-0.7250263389199971,-0.3879287292128429
1764585671390110700,7.15111083984375,0.05003037931574508,-0.6771709472894668,-0.4567657167367637
1764585671400065500,7.1610654296875,0.36568507749438284,-0.6968956384569406,-0.4001485977081582
1764585671410019600,7.17101953125,0.5597521900892257,-0.5977630640536546,-0.19656988919600843
1764585671419973600,7.1809736328125,0.6547954493522644,-0.495461211964488,-0.06419095181636512
1764585671429927700,7.190927734375,0.7154501168012619,-0.4803653496414423,0.019171879590302705
1764585671439882800,7.2008828125,0.7984861274063587,-0.30153380010128017,0.16916750300750136
1764585671449836800,7.2108369140625,0.8209329370141029,0.24332068058550357,0.21067462158985434
1764585671459790600,7.22079052734375,0.7505319515764712,0.9182546626031398,0.2009274268183857
1764585671469744600,7.23074462890625,0.6590589520156384,1.1050918239444494,0.2491732425386086
1764585671479698700,7.24069873046875,0.49108022040128707,0.8955395574480295,0.2963262945860624
1764585671489653500,7.250653564453125,0.3824304605901241,0.8742623761415481,0.301954107872583
1764585671499607600,7.260607666015625,0.3210965787053108,0.8840379202246665,0.2627110252320766
1764585671509561900,7.270561767578125,0.2598012752652168,0.827491857138276,0.24335345034394412
1764585671519515600,7.280515625,0.2198831063747406,0.7788537906974553,0.20619137522857636
1764585671529470700,7.290470703125,0.09698153384923934,0.7222656420350074,0.14891345420368016
1764585671539424800,7.3004248046875,-0.031218131384649312,0.6215063432127237,0.1002608112482354
1764585671549378600,7.310378662109375,-0.1559691448688507,0.6447597930282354,0.08918580193910747
1764585671559332600,7.32033251953125,-0.27240473625063893,0.6383025797128677,0.04362959062904119
1764585671569286700,7.33028662109375,-0.33843466699719427,0.4517740459293127,-0.07124247776307165
1764585671579241700,7.34024169921875,-0.4422270499050617,0.24732407100796697,-0.21819774710368364
1764585671589195800,7.35019580078125,-0.5163187065541744,0.15066811585128306,-0.2705223565701395
1764585671599149800,7.36014990234375,-0.532035915645957,0.2267798801511526,-0.36547925272397697
1764585671609103600,7.370103515625,-0.5669149213254452,0.3157546331554651,-0.3851397195488214
1764585671619058700,7.38005859375,-0.6340636269688605,0.37037703470289707,-0.3700917149554938
1764585671629012500,7.390012451171875,-0.6862620162397622,0.39112113204598425,-0.33927900886684653
1764585671638966500,7.399966552734375,-0.7077730063021183,0.4351812230467796,-0.2852780271533876
1764585671648920800,7.4099208984375,-0.7246551675200462,0.440484590151906,-0.26136962056048213
1764585671658875600,7.419875732421875,-0.7930874832332134,0.4572060078501701,-0.25633571804650124
1764585671668829700,7.42982958984375,-0.8561240773826837,0.5048427882939577,-0.19873780781961975
1764585671678783700,7.43978369140625,-0.8080962517946958,0.4354430888533592,-0.0969555956903845
1764585671688737500,7.449737548828125,-0.6301712957054376,0.054258828932046886,0.04385170894712209
1764585671698691600,7.459691650390625,-0.375725994515419,-0.6258768133819103,0.15759849963635206
1764585671708646700,7.469646728515625,-0.03947279974315315,-1.2722855426609516,0.3156283033620566
1764585671718600700,7.4796005859375,0.27782500773370267,-1.5620476564258337,0.31400084829069674
1764585671728554800,7.4895546875,0.4277192166030407,-1.3100327972531318,0.24326924265921115
1764585671738508800,7.4995087890625,0.5215531000763177,-0.930028102505207,0.18274141646027564
1764585671748462600,7.509462646484375,0.7465420051574707,-1.004542368480563,0.2455170946512371
1764585671758417700,7.519417724609375,0.9719283851236105,-1.2321242126643657,0.1982338038202375
1764585671768371500,7.529371337890625,1.080981465038657,-1.2755156106233596,0.24166027309261262
1764585671778325000,7.539324951171875,1.0448708717375994,-0.8692448402404784,0.2946826920975
1764585671788279000,7.549279052734375,0.8875672633945941,-0.2690337985128164,0.38330512453280385
1764585671798234000,7.559234130859375,0.7917144413143395,0.2826332847982645,0.3309779212504625
1764585671808188000,7.56918798828125,0.6879243964940309,0.7409042915314435,0.33425416644215583
1764585671818142000,7.579141845703125,0.5239613302618265,1.1586509801745415,0.2928432747758925
1764585671828096300,7.58909619140625,0.37269053580965844,1.6912632344037293,0.23598639217466114
1764585671838051000,7.599051025390625,0.19325871882140636,2.163193933176994,0.21205643133707344
1764585671848005000,7.609005126953125,0.03058740943279117,2.354654078143835,0.14931969691701233
1764585671857959000,7.618958984375,-0.13946695941183715,2.3244179298341274,0.1115326948363334
1764585671867913000,7.628912841796875,-0.2750391398748383,2.202137119555473,0.19625000959187744
1764585671877867000,7.638866943359375,-0.3168167094290256,1.7886048337370155,0.2576096835050732
1764585671887822000,7.648822021484375,-0.45064650320410726,0.9426660502821207,0.22931509771719574
1764585671897776000,7.658776123046875,-0.4811714783925563,-0.042300095590949056,0.2830170234188437
1764585671907730200,7.668730224609375,-0.5321165066014975,-0.7678723779559135,0.4018587260942906
1764585671917684000,7.67868408203125,-0.6154360833883286,-0.9137339703083038,0.5612735544376075
1764585671927638000,7.688637939453125,-0.7628980966746807,-0.6748544870406389,0.5463485917020589
1764585671937593000,7.698593017578125,-0.8422468701343983,-0.39679683959484097,0.38764702619463204
1764585671947547000,7.708546875,-0.9369353976756334,-0.3525345040202141,0.11000329331196844
1764585671957501000,7.7185009765625,-0.9681073655307293,-0.6377513755708932,-0.18974881100431085
1764585671967455200,7.728455322265625,-0.783537564599514,-0.9954477923989296,-0.2710978914357722
1764585671977410000,7.73841015625,-0.40507724974937737,-1.1673813991189002,-0.196604741313681
1764585671987364000,7.748364013671875,-0.07924710318353026,-1.5571096155017614,-0.2141058381475508
1764585671997318100,7.758318115234375,0.07687281180024147,-2.29046948300302,-0.38389417646713553
1764585672007272000,7.76827197265625,0.26985216569099574,-2.8169039253801107,-0.6474191484306008
1764585672017227000,7.77822705078125,0.6132499715209007,-2.7222546338707208,-0.8840188501980155
1764585672027181000,7.78818115234375,0.8029612269937991,-1.5525053365767,-0.9110060066491364
1764585672037135000,7.798135009765625,0.72304422519207,-0.1314092886298895,-0.8127491921670734
1764585672047089200,7.808089111328125,0.4339671710819006,0.9039151716053485,-0.8273129203747958
1764585672057043200,7.818043212890625,0.11867259318623691,1.201419862321019,-1.0690369794186203
1764585672066998000,7.827998046875,0.00176704620514065,1.1377870558440684,-1.0508735462184995
1764585672076952000,7.8379521484375,0.12135492760539054,1.2823720523893833,-0.857467820141837
1764585672086905900,7.84790576171875,0.13391571849286554,1.5466560260266065,-0.4696127041544765
1764585672096860000,7.85785986328125,0.04279467417486012,1.7822218547016382,-0.07859744363576174
1764585672106815000,7.86781494140625,-0.06224580909796059,1.7738655297666788,0.17667744024619458
1764585672116769000,7.87776904296875,-0.13642214835584163,1.3411352070033549,0.28882030287012456
1764585672126723000,7.88772314453125,-0.24380291114449498,0.8348638472110033,0.28732984511666
1764585672136677000,7.897677001953125,-0.3713386462766677,0.5624240396469831,0.23417452044710516
1764585672146631000,7.907630859375,-0.3545721473276615,0.4611994614005089,0.10350852446518838
1764585672156586000,7.9175859375,-0.30374570399709044,0.261928934943676,-0.12085567284636199
1764585672166540000,7.9275400390625,-0.2891418629746884,0.06277005216777325,-0.2972572187606245
1764585672176494000,7.937494140625,-0.2739653366308659,-0.2962052985548973,-0.45058753955848513
1764585672186448100,7.9474482421875,-0.2797217082004994,-0.7300532271713018,-0.5889743390507995
1764585672196403000,7.95740283203125,-0.3478887240409851,-0.9245289205670356,-0.6583923778656869
1764585672206357000,7.96735693359375,-0.4168031972479075,-0.8438900342315435,-0.6745645641833543
1764585672216311000,7.97731103515625,-0.4395435099095106,-0.552541528058052,-0.6298510507751256
1764585672226264800,7.987264892578125,-0.4072486755043268,-0.38610710327625275,-0.5433822527097538
1764585672236219100,7.99721923828125,-0.31982349002957344,-0.4088420821756124,-0.4158877629034221
1764585672246174200,8.00717431640625,-0.18553660013675688,-0.38705402873754496,-0.29319128449596465
1764585672256128000,8.0171279296875,-0.19334763921387493,-0.3671802844882011,-0.11738704688772558
1764585672266082000,8.02708203125,-0.31735096243619915,-0.1297656130760908,0.09015165129657834
1764585672276036000,8.0370361328125,-0.4134136278748512,0.23553484901487826,0.32180589601844545
1764585672285991000,8.046990966796875,-0.4208639438807964,0.5511643944859504,0.4851033744813874
1764585672295945200,8.0569453125,-0.4642851524561643,0.7463812616378068,0.5738305824654176
1764585672305899300,8.066899169921875,-0.5189812037616968,0.9172358409494161,0.6287554375581443
1764585672315853000,8.07685302734375,-0.5428185178797692,1.0357155053794382,0.5918423322351649
1764585672325808000,8.08680810546875,-0.6174625477146357,1.1887579491466282,0.4224328006327152
1764585672335762000,8.096761962890625,-0.7415260766915976,1.1934522444427014,0.28428916224651035
1764585672345716000,8.106716064453124,-0.7540010159265249,1.001112978553772,0.12960585593711585
1764585672355670000,8.116669921875,-0.7095686575472354,0.7384346865475178,-0.0652986207973212
1764585672365624000,8.1266240234375,-0.6017137744408101,0.5703530790805816,-0.15627729750256986
1764585672375579100,8.1365791015625,-0.5142383931487798,0.48864919386208056,-0.06976809436157345
1764585672385533200,8.146533203125,-0.4301770580839365,0.4586597137898206,0.038222836214676495
1764585672395487000,8.156487060546874,-0.37637715190052984,0.4279705610156059,0.06886787585252896
1764585672405441000,8.16644091796875,-0.4029080159515142,0.08451192837655544,0.12172334079267456
1764585672415396000,8.17639599609375,-0.2777219857506454,-0.6548609158039093,0.18848843567967413
1764585672425350000,8.186349853515624,-0.08193243327736854,-1.4122680138468742,0.22695446953307835
1764585672435304200,8.19630419921875,0.022218919136002657,-1.5912369260311126,0.16834917236194014
1764585672445258200,8.20625830078125,0.05743044470548629,-1.0421680425196886,0.025569362075068054
1764585672455212000,8.2162119140625,0.12941036989763377,-0.613111439833045,-0.17768422440225257
1764585672465167000,8.2261669921875,0.37553609796650705,-0.6945400152415037,-0.3622353023666888
1764585672475121000,8.236120849609375,0.5649445711005479,-0.8784481373935937,-0.5534952120536938
1764585672485075000,8.246074951171876,0.5600071877636015,-0.6402537137806416,-0.7463117765981704
1764585672495029000,8.256029052734375,0.38584472601301967,0.030759295400977132,-0.8855660796400159
1764585672504984000,8.265984130859374,0.2837912957269698,0.662453855150938,-1.0598900155626236
1764585672514938000,8.275938232421876,0.28792854166217147,1.003311949902773,-1.1623442817345262
1764585672524892200,8.28589208984375,0.3523533022344112,1.023013260194659,-1.1352823064815252
1764585672534846000,8.295845947265626,0.49628772591650483,0.7533429173439741,-0.9472753707084804
1764585672544800000,8.305800048828125,0.5555734430998563,0.5213385805428028,-0.6070342388112098
1764585672554755000,8.315755126953125,0.5687871449381112,0.32781215069591996,-0.33696890529356893
1764585672564708900,8.325708984375,0.6405377914190292,-0.027281390157341955,-0.20119700100738555
1764585672574663200,8.3356630859375,0.7581149540513753,-0.5848188268065452,-0.12207925982456654
1764585672584617200,8.3456171875,0.9037369654942303,-1.2430156090348958,-0.09358471275148912
1764585672594572000,8.355572021484376,1.0123253505069763,-1.8102882577568291,-0.17723728435235098
1764585672604526000,8.365526123046875,1.0196056437082588,-2.101120631101727,-0.3197418396281078
1764585672614480100,8.375480224609374,0.9665923578578978,-2.0833938357532023,-0.5253558533601462
1764585672624434000,8.385433837890625,0.8341379440892487,-1.5360872857391834,-0.695738212050125
1764585672634388000,8.395387939453125,0.7078812159169465,-0.8335919275790452,-0.7889581283435225
1764585672644343000,8.405343017578126,0.520767502656579,-0.3427233041018247,-0.9001593262031674
1764585672654297000,8.415297119140625,0.22987784616649148,0.41510815683305263,-0.9793388805758207
1764585672664251100,8.425251220703124,-0.05693769275248051,0.9826192904859781,-0.9770194246523082
1764585672674205200,8.435205078125,-0.20567520586736499,1.1293196717500686,-0.8744451853625476
1764585672684160000,8.445159912109375,-0.20648053090088067,0.9505290387421845,-0.6331383288174868
1764585672694114000,8.455114013671874,-0.0961245516937226,0.7229127077668905,-0.34379177358355373
1764585672704067800,8.46506787109375,-0.054778541957214474,0.707618692523241,-0.03284251314951107
1764585672714022100,8.475022216796875,-0.11350589460544287,0.920498057615757,0.23121504958700387
1764585672723977200,8.484977294921874,-0.23306465950906274,1.109855677345395,0.4994956185797229
1764585672733931000,8.494930908203125,-0.4382978206973523,1.2067787590056658,0.6912982568413019
1764585672743885000,8.504885009765625,-0.6712876614045351,1.3243869012981653,0.7291983639076351
1764585672753839000,8.514839111328126,-0.7578360640447587,1.4591875859320163,0.2723064635079354
1764585672763793000,8.52479296875,-0.8049345728933811,1.5011866527497768,-0.5617673293039203
1764585672773748200,8.534748291015624,-0.8262187684625387,1.184043780106306,-1.0209370384424925
1764585672783702300,8.544702392578126,-0.6513695665568113,0.6581915215313434,-1.3400484346799553
1764585672793656300,8.55465625,-0.4422936123352498,-0.2679319747507572,-1.6647626193605363
1764585672803610400,8.5646103515625,-0.032360812313482167,-0.8324030100554227,-1.754059736187011
1764585672813565200,8.574565185546875,0.39512159985899925,-1.0538824457108973,-1.6468480463549493
1764585672823519200,8.584519287109375,0.6319289530277252,-1.2845593333005905,-1.456105402007699
1764585672833473300,8.594473388671876,0.7567840707737952,-1.6706839722335338,-1.2281433263346553
1764585672843427300,8.60442724609375,0.844424287238717,-2.004775057068467,-0.8969324731111527
1764585672853381400,8.61438134765625,0.7930570880949497,-2.0885095713317394,-0.5905548131752759
1764585672863336400,8.62433642578125,0.5578413880318402,-1.8947522553384304,-0.29308031666846945
1764585672873290200,8.634290283203125,0.2365308743149042,-1.4887842672944067,-0.022830902138061354
1764585672883244300,8.644244384765624,-0.033172274826839564,-1.098158225288987,0.17249114927118644
1764585672893198300,8.6541982421875,-0.20394728609621524,-0.941550197994709,0.2975147006530314
1764585672903153400,8.6641533203125,-0.2761129431188106,-0.8625193313777446,0.3693499932100996
1764585672913107500,8.674107421875,-0.30784722103178497,-0.5644032307654618,0.4833711073286831
1764585672923061200,8.684061279296875,-0.30449557251632214,-0.09841478152275085,0.6186920895095914
1764585672933015300,8.694015380859375,-0.34202538496553897,0.3537479714632034,0.7237870794486254
1764585672942969300,8.70396923828125,-0.36935244089551267,0.6580126578330994,0.7228833355419337
1764585672952924200,8.713924072265625,-0.3609587065596133,0.8424550329923629,0.6377712493151426
1764585672962878200,8.723878173828124,-0.34193419955074783,1.1321207006454468,0.5381481879811734
1764585672972832300,8.733832275390625,-0.3359965531300753,1.506167363771796,0.3782876251643523
1764585672982786300,8.743786376953125,-0.28049861085712907,1.783313157069683,0.22991078032171353
1764585672992741400,8.753741455078124,-0.16190204204916953,1.7116951970577239,0.12370251364484429
1764585673002695400,8.7636953125,-0.0178203188508749,1.3353075237631797,0.026287789709842763
1764585673012649200,8.773649169921875,0.10385441529341041,0.9656599723786115,0.054297096849512304
1764585673022603300,8.783603271484376,0.15077866355367003,0.6309118849396705,0.04518607195657678
1764585673032558000,8.79355810546875,0.08369710486233234,0.2978250087112188,-0.011961553202557842
1764585673042512400,8.803512451171875,-0.05710369696915149,0.03344809609353542,0.022017380098358262
1764585673052466400,8.813466552734376,-0.024361630253121255,-0.2851514050990343,0.07663643662794492
1764585673062420500,8.82342041015625,0.07956680012457072,-0.7133364856481552,0.04108037650368642
1764585673072374300,8.833374267578124,0.0837117179095745,-0.9415969597458839,0.0748605951949954
1764585673082329300,8.843329345703125,0.07245444736871869,-0.9943915613442659,0.15172531502032652
1764585673092283100,8.853283203125,0.024199279298260806,-0.8479191436171531,0.18918810838162897
1764585673102237200,8.8632373046875,0.003288593216612935,-0.523156443619728,0.26265902105020356
1764585673112191200,8.873191162109375,-0.05806223980300128,-0.29406594843864436,0.22517856416804716
1764585673122146300,8.883146240234375,-0.1406243492860347,-0.1310252577483654,0.15106679631266742
1764585673132100400,8.893100341796876,-0.19906302118599414,0.02372223637104034,0.06846027229917236
1764585673142054400,8.903054443359375,-0.23335746844317762,0.1665828933417797,0.025561818089429287
1764585673152008200,8.91300830078125,-0.24613920860495417,0.33164369168281554,0.05045936815042514
1764585673161962200,8.922962158203125,-0.2074812689086422,0.510935259950161,0.11201182925594039
1764585673171917300,8.932917236328125,-0.13181260873377323,0.636931291359663,0.14724995057140478
1764585673181871400,8.942871337890624,-0.004429579945281148,0.7037608480513096,0.15823515357207507
1764585673191825400,8.952825439453125,0.10858370883762836,0.7121697799563408,0.12858513458725065
1764585673201779500,8.962779541015625,0.1306762251149863,0.5634487065196037,0.20195404818607493
1764585673211734300,8.972734375,0.17613105840981005,0.41082653399109836,0.35271186988111586
1764585673221688300,8.982688232421875,0.18224457285404205,0.38477673145532604,0.4364692900959402
1764585673231642400,8.992642333984374,0.09379296694099902,0.3012619974225759,0.4506664500135928
1764585673241596200,9.00259619140625,-0.018441592554375528,0.20699147609770296,0.4678522703532129
1764585673251550200,9.01255029296875,-0.13666819553878157,0.1579296312868595,0.4759153844952583
1764585673261505300,9.02250537109375,-0.26240469922926274,0.03914952260553837,0.41128457995690404
1764585673271459300,9.032459228515625,-0.35805944145414975,-0.14751871190965174,0.3307026845056563
1764585673281413400,9.042413330078125,-0.4099181869745254,-0.34503216556608673,0.3092331224322319
1764585673291367200,9.0523671875,-0.3972766955336556,-0.47752749586701393,0.2429013774611987
1764585673301322200,9.062322265625,-0.3581833235621452,-0.5632832868248224,0.22598893070286138
1764585673311276300,9.0722763671875,-0.3088140202373266,-0.6903016470193862,0.21037713648062198
1764585673321230300,9.082230224609376,-0.2485947850635275,-0.9532838904082774,0.09979792471053078
1764585673331184400,9.092184326171875,-0.2087713087191805,-1.1977695231199263,-0.007745755288563669
1764585673341138400,9.102138427734374,-0.1832826837301254,-1.3025205219268798,-0.07247265887884423
1764585673351093200,9.11209326171875,-0.08848430260624736,-1.2878829247653483,-0.17648171674469484
1764585673361047300,9.12204736328125,-0.04546177449226379,-1.1085229674369097,-0.2784196674249135
1764585673371001300,9.13200146484375,-0.05950199028253555,-0.5513800830632448,-0.30867987246364353
1764585673380955100,9.141955078125,-0.04322422469854355,-0.07666764461696148,-0.3423603890735656
1764585673390910500,9.151910400390625,-0.01715637504942715,0.3083773823857307,-0.3779550687417388
1764585673400864300,9.1618642578125,-0.044198695753887296,0.48087388368546957,-0.39917219042405483
1764585673410818300,9.171818359375,-0.04097498446702957,0.3571814530432224,-0.4133945213155821
1764585673420772400,9.1817724609375,-0.02577799985706806,0.14665303499102592,-0.49112398647777733
1764585673430727200,9.19172705078125,0.055180035430192946,0.04843173021376133,-0.6023523646052926
1764585673440681200,9.20168115234375,0.1096843635559082,-0.03518880228102207,-0.759983232141286
1764585673450635300,9.21163525390625,0.12811554431412367,-0.13095336155593396,-0.8374003068860619
1764585673460589300,9.22158935546875,0.17972813305370508,-0.14767887090742587,-0.8330120818644762
1764585673470543400,9.23154345703125,0.25905783648677166,-0.08437807286381721,-0.8277784920599311
1764585673480498400,9.24149853515625,0.2802963662832975,0.04077449345886707,-0.7820914574444293
1764585673490452200,9.2514521484375,0.3432365508535877,0.24099077633321284,-0.773817988487333
1764585673500406300,9.26140625,0.41086277434825896,0.315780936640501,-0.7801002105619758
1764585673510360300,9.2713603515625,0.43248661366794255,0.3396615784436464,-0.6662989862717688
1764585673520315400,9.2813154296875,0.41199565083570777,0.30751813520789145,-0.4132262886092066
1764585673530269400,9.29126953125,0.3623013533402234,0.3294587488591671,-0.154471362325456
1764585673540223500,9.301223388671875,0.23446466250009834,0.3548094632148742,0.05492836222406476
1764585673550177300,9.31117724609375,0.028014307541772723,0.3335445568680763,0.19898670454677192
1764585673560131300,9.32113134765625,-0.1863864949643612,0.29601591346263884,0.35211094484589994
1764585673570086100,9.331086181640625,-0.32379129768200215,0.23763445164263247,0.4989067493084818
1764585673580040200,9.341040283203125,-0.44350013858079906,0.1405453657656908,0.5943430630097165
1764585673589994200,9.350994140625,-0.5892681343656033,0.008895254117250442,0.6398321273677051
1764585673599948300,9.3609482421875,-0.6531423483829945,-0.015666355687379837,0.6422257445059716
1764585673609903400,9.3709033203125,-0.6698427232932299,0.03564531387686729,0.6464566600739956
1764585673619857400,9.380857421875,-0.6043226417649536,0.1332517016261816,0.653760114955157
1764585673629811200,9.390811279296875,-0.6413011770069599,0.1025257239729166,0.7044973456323146
1764585673639765200,9.40076513671875,-0.8641517548851668,-0.03783551739752292,0.5944955866903067
1764585673649720000,9.410719970703125,-1.2014508419811725,-0.26258944467902184,0.39344679851457476
1764585673659674400,9.42067431640625,-1.4811790529876947,-0.6665127751529216,0.26245135138258335
1764585673669628400,9.43062841796875,-1.650599215582013,-1.132125961342454,0.09317183936797081
1764585673679582500,9.44058251953125,-1.6944539932690559,-1.6087977171629666,0.27701252230703827
1764585673689536300,9.450536376953124,-1.652668276941031,-1.9216314944356678,0.42181737214811144
1764585673699491300,9.4604912109375,-1.698818764349818,-2.0959102029770613,0.45790714185684916
1764585673709445000,9.470445068359375,-1.8651994131177663,-2.009225022214651,0.7910961632855236
1764585673719399200,9.480399169921874,-1.9805577306568622,-1.734183507719636,1.155854335193336
1764585673729353200,9.490353271484375,-2.2809337390251456,-1.2221148598253726,1.082487339556962
1764585673739308300,9.500308349609375,-2.3430688542902467,-0.17484218764305115,1.1699493499107658
1764585673749262300,9.510262451171876,-2.308979099292308,0.9745464586675167,1.2732896051369607
1764585673759216400,9.52021630859375,-2.283230179399252,1.8160954827308653,1.1369994125977159
1764585673769170200,9.530170166015624,-2.024457078137994,2.3986539633899926,1.060928857091069
1764585673779124200,9.540124267578125,-1.5469387884907424,2.735384164556861,0.9830568051204085
1764585673789079300,9.550079345703125,-0.7068896475963294,2.6638942148387432,0.9858182326577604
1764585673799033300,9.560033447265624,0.41692908864989875,1.9538743063926696,0.8973517214365303
1764585673808987400,9.5699873046875,1.3901818542450666,1.0238467884093523,0.5022933960720897
1764585673818941400,9.57994140625,1.8491772297300397,0.34293080937266346,0.1681269079133868
1764585673828896300,9.589896240234374,2.081320098219067,0.18874796339869498,-0.19950316616892813
1764585673838850300,9.599850341796875,1.9835481446444987,0.3217588420063257,-0.2877291466325521
1764585673848804400,9.609804443359375,1.9177257191687822,0.5798439610034227,-0.4348620740950107
1764585673858758100,9.619758056640626,1.9828911420404909,0.7276315529823303,-0.2644154910624027
1764585673868713500,9.62971337890625,2.0380735155582426,0.7966144883155822,-0.3301248115524649
1764585673878667300,9.639667236328124,2.0595145091243086,0.8559732707351446,-0.2286769459441304
1764585673888621300,9.649621337890625,2.0729316245801748,0.8602934720218182,-0.08308043426871299
1764585673898575400,9.659575439453125,1.8807937264822423,0.5714683468461036,-0.012382511711120604
1764585673908529400,9.669529296875,1.6313455029271542,0.09945289239883422,0.23845453585386275
1764585673918484200,9.679484130859375,1.4657247326157987,-0.3520867602527141,0.5914473050355911
1764585673928438300,9.689438232421875,1.0847272274382411,-0.734057202115655,0.698769323374331
1764585673938392300,9.699392333984376,0.9206646463543177,-1.2193214297145605,0.6185980545505881
1764585673948346400,9.709346435546875,0.8225380341231823,-1.8237784384489057,0.3262102684572339
1764585673958301200,9.71930126953125,0.5975836158335208,-2.291260341119766,0.20566680336520074
1764585673968255200,9.729255126953126,0.377281407263875,-2.526958856263757,0.11879779046848415
1764585673978209300,9.739209228515625,0.13688041351735591,-2.3306389963060616,0.05545768332779407
1764585673988163300,9.749163330078124,-0.4831215164817869,-1.0433353327333927,0.25368805308192965
1764585673998117000,9.7591171875,-1.0026426723390818,0.7822802580147982,0.4769819908134639
1764585674008072400,9.769072509765625,-1.6480254195712505,1.774275279611349,0.40836379713937637
1764585674018026200,9.779026123046876,-2.2845845166176555,2.1455238364517686,0.09002017040401697
1764585674027980300,9.788980224609375,-1.8542396276861428,2.3044465704292056,0.8385358137220144
1764585674037934300,9.798934326171874,-1.620254492331296,2.269050847399235,1.4579209269970654
1764585674047889200,9.80888916015625,-1.1367723258435725,2.2876468267977237,1.4978760668970643
1764585674057843200,9.81884326171875,-0.45715281635820865,2.4274065951436756,1.2502373769819737
1764585674067797200,9.82879736328125,-0.221198134496063,1.9530963077574968,0.8509576345302164
1764585674077751300,9.838751220703125,-0.307746025679633,1.4761761301338672,0.2632508311972022
1764585674087705300,9.848705322265625,-0.44152262796275316,0.9577817863494157,-0.249114461556077
1764585674097660400,9.858660400390624,-0.5942875699628144,0.25432722776830197,-0.5213656146802008
1764585674107614200,9.8686142578125,-0.43824988990239794,-0.5267535913288593,-0.6990823348462581
1764585674117568300,9.878568359375,-0.41053135043680666,-1.042812185642123,-0.9875057473532854
1764585674127522300,9.888522216796876,-0.5235965155374258,-1.3579828814297914,-0.9996927364923059
1764585674137477400,9.898477294921875,-0.5314695139348506,-1.7574147457033396,-0.861505039768666
1764585674147431400,9.908431396484374,-0.5391483049344271,-2.2569512442827224,-0.7754121258109807
1764585674157385500,9.918385498046876,-0.5606915167659521,-2.641236392828822,-0.5269735176898539
1764585674167339300,9.92833935546875,-0.5533370623499154,-2.8229695090293885,-0.3708342769511044
1764585674177293300,9.938293212890626,-0.6569739624351263,-2.9004192439347505,-0.19935016756430268
1764585674187248000,9.948248046875,-0.7562812358181923,-2.7305051603436468,0.06124488842710852
1764585674197202200,9.9582021484375,-0.8848281938195228,-2.2654829257845877,0.34741862231120463
1764585674207156500,9.968156494140626,-1.036433882781863,-1.6138649374246596,0.7623932158924639
1764585674217110300,9.9781103515625,-1.1718255190461873,-1.005558852046728,1.062466588052362
1764585674227065300,9.9880654296875,-1.2395920643270015,-0.42954526298642154,1.3283121119178831
1764585674237019400,9.998019287109376,-1.2376748325288296,0.0001087210714817047,1.4705775794744491
1764585674246973200,10.00797314453125,-1.1551607999712228,0.25792963617444037,1.5558591770492494
1764585674256927200,10.01792724609375,-0.9627455462366342,0.3747591953098774,1.5950360260531304
1764585674266882300,10.02788232421875,-0.6843916192580014,0.4240285453915596,1.6056382302187382
1764585674276836400,10.03783642578125,-0.37078846504800017,0.46239831579625607,1.5891585123218595
1764585674286790400,10.047790283203126,-0.08622275088243186,0.4831646249711513,1.5037819299399853
1764585674296744400,10.057744384765625,0.1537334217060357,0.4121341094583273,1.3827370911970733
1764585674306698200,10.0676982421875,0.31822781833596525,0.34340251853764053,1.2124486213356256
1764585674316653300,10.0776533203125,0.36468795621581374,0.3153852153211832,1.0236366527900098
1764585674326607000,10.087607177734375,0.31595563562028106,0.3118640554577112,0.841423644118011
1764585674336561200,10.09756103515625,0.19690145923793315,0.2860048070579767,0.6254333073981105
1764585674346515500,10.107515380859375,0.0615869798630476,0.14464870943129063,0.37474618969783186
1764585674356470300,10.11747021484375,-0.0733896458595991,0.17210370258986948,0.17606413065344095
1764585674366424300,10.12742431640625,-0.24702421127855775,0.23563187964856624,0.04529533188417554
1764585674376378400,10.13737841796875,-0.3605010259199887,0.18314649012982845,-0.1143242983162403
1764585674386332200,10.147332275390625,-0.4106126720447093,0.10217208822965622,-0.2626492120422423
1764585674396286200,10.1572861328125,-0.4746656766951084,0.035950434303283686,-0.3892265504710376
1764585674406241500,10.167241455078125,-0.520449011291936,-0.00618657968044281,-0.4829708559647202
1764585674416195300,10.1771953125,-0.5140233621586114,-0.019144260931015015,-0.524536499801278
1764585674426149400,10.1871494140625,-0.5164116455346346,-0.01729015749692917,-0.5493837946794927
1764585674436103400,10.197103515625,-0.49948038447797294,-0.12711831343770028,-0.5537475428469478
1764585674446058200,10.207058349609374,-0.43199499422609805,-0.4075239853143692,-0.5204655971005558
1764585674456012300,10.21701220703125,-0.31795185093879696,-0.43749417616426944,-0.4716707326628268
1764585674465966300,10.22696630859375,-0.2529619307644665,-0.6677087069392204,-0.33570845690369605
1764585674475920100,10.236920166015626,-0.036310645917803044,-0.9459370347768068,-0.2882575544208288
1764585674485874400,10.24687451171875,0.07307458856105804,-1.1654080532193183,-0.27915976346880195
1764585674495829200,10.256829345703125,0.1241933659017086,-1.1141980904638766,-0.1507068404264748
1764585674505783300,10.266783203125,0.10598024834096431,-0.8522486972540616,-0.07926394472047686
1764585674515737300,10.2767373046875,0.1476649154473096,-0.7336585581868886,-0.0730763421267271
1764585674525691400,10.28669140625,0.21159823924079535,-0.6323153219968081,-0.10205956776589155
1764585674535646200,10.296646240234375,0.24868308440148829,-0.40451837375760075,-0.14491481302157044
1764585674545600500,10.3066005859375,0.2802659711450338,-0.12172609900534152,-0.24675197020843623
1764585674555554300,10.31655419921875,0.3382400212079286,0.14073065920472144,-0.3019892887838185
1764585674565508400,10.32650830078125,0.4024679440338164,0.2956961799889803,-0.35446503369137644
1764585674575463200,10.336463134765625,0.510907202899456,0.4308674515008926,-0.3404682186514139
1764585674585417200,10.346417236328126,0.6410504171162843,0.7363590493172407,-0.23848756134063004
1764585674595371300,10.356371337890625,0.7694243566382676,1.0175766220986842,-0.13681845419704913
1764585674605325300,10.3663251953125,0.8505570909053086,1.0279542237281798,-0.11527692286595702
1764585674615279000,10.376279052734375,0.8060977714538574,0.8171843981355428,-0.12588979455605148
1764585674625234400,10.386234375,0.652273675789684,0.5395534516692161,-0.15711436938121914
1764585674635188200,10.396188232421874,0.47097252126559613,0.37471184903681276,-0.16471052359864113
1764585674645142300,10.406142333984375,0.2949135051786899,0.2593231363594532,-0.1493992649592459
1764585674655096300,10.416096435546875,0.10464578486680984,0.091053312844038,-0.1612390480957925
1764585674665051100,10.426051025390626,-0.07641732311770319,-0.05756196213066578,-0.15199205793142317
1764585674675005200,10.436005126953125,-0.24082491824701427,-0.1701549066096544,-0.09312456616014242
1764585674684959500,10.44595947265625,-0.37763811174705625,-0.16970774736404418,-0.03449249057993293
1764585674694913300,10.455913330078126,-0.473796346514672,-0.13462182093560696,0.01541808001473546
1764585674704867300,10.465867431640625,-0.5418371786922216,-0.18090017250776289,0.004342997640371322
1764585674714822400,10.475822509765624,-0.5836637384872884,-0.20686405032575128,-0.046845776196569204
1764585674724776200,10.485776123046875,-0.5954315523661673,-0.19153788637816904,-0.08742050929963588
1764585674734730200,10.495730224609375,-0.6065314769208431,-0.12431553097665309,-0.11253361550718545
1764585674744684300,10.505684326171876,-0.6266425370573997,-0.03383329601883888,-0.14081658392250537
1764585674754639400,10.515639404296875,-0.6461411643840372,0.1348807641327381,-0.127127227396518
1764585674764593400,10.525593505859375,-0.5796591059558093,0.2876549123525619,-0.06943535527586936
1764585674774547500,10.53554736328125,-0.4718289919644594,0.41289632600247855,0.01835121085718274
1764585674784501200,10.545501220703125,-0.4545781435646116,0.49687867754697795,0.10179010317474603
1764585674794455300,10.555455322265624,-0.41513972101509566,0.4850982233822346,0.16509981517717243
1764585674804410000,10.56541015625,-0.3629366555690765,0.4109153813183307,0.21170535287708042
1764585674814364200,10.5753642578125,-0.32242227435112,0.3864887960702181,0.2604863349199295
1764585674824318200,10.585318115234376,-0.29569749516323207,0.33667116445600986,0.30394656033143397
1764585674834272300,10.595272216796875,-0.2789426135867834,0.2935574143946171,0.3588724748700857
1764585674844227300,10.605227294921875,-0.22530586207583544,0.2785579981833696,0.3957221961006522
1764585674854181400,10.615181396484376,-0.1826081454694271,0.2602472654670477,0.3924291459046304
1764585674864135200,10.62513525390625,-0.14480536129772661,0.19036475094556807,0.3826410346008837
1764585674874089200,10.635089111328124,-0.14731763637959958,0.06787526635229588,0.3312337957076728
1764585674884043300,10.645043212890625,-0.18093349025547503,0.04407002787292003,0.3013175270020962
1764585674893998000,10.654998046875,-0.21975853014700114,0.08161737597882747,0.2469927932269871
1764585674903952100,10.6649521484375,-0.2744634223461151,0.1685918950766325,0.19224296590760348
1764585674913906400,10.674906494140625,-0.32005956380777056,0.2335983279943466,0.15587898236736655
1764585674923860200,10.684860107421875,-0.3428746952712536,0.23575229115784166,0.11945566985532641
1764585674933815300,10.694815185546876,-0.35624271088838577,0.14417641574442386,0.07271949151307344
1764585674943769300,10.704769287109375,-0.35944939797520636,-0.08561199857294559,0.021512159106135367
1764585674953723100,10.71472314453125,-0.33890710681453345,-0.3996311862379312,-0.05618804342895746
1764585674963677200,10.72467724609375,-0.28517361693084237,-0.6450485468417406,-0.09897519188448786
1764585674973632300,10.73463232421875,-0.1750485238701105,-1.0051046785384417,-0.1567731547281146
1764585674983586300,10.74458642578125,-0.06710369745790958,-1.2407593545407056,-0.23399770257547498
1764585674993540400,10.754540283203125,0.025458850905299184,-1.2188953132569789,-0.24852877062261103
1764585675003494100,10.764494140625,0.13083126954622565,-1.210485796830058,-0.2866796375796199
1764585675013448200,10.7744482421875,0.2748379547469318,-1.1338462092638015,-0.2826855995073914
1764585675023403300,10.7844033203125,0.4202789105344564,-0.9352700948119163,-0.20711378730311988
1764585675033357000,10.794357177734375,0.5255746106773614,-0.756444390490651,-0.13566460798680782
1764585675043311000,10.80431103515625,0.6211971311330795,-0.5925134729623794,-0.06626563919857144
1764585675053265400,10.814265380859375,0.6936610404498875,-0.3697293844491243,0.04836933250203728
1764585675063220200,10.82422021484375,0.7548989146143198,-0.017760697618126868,0.195683900141716
1764585675073174300,10.83417431640625,0.779369339004159,0.36316637267172336,0.32403248602673407
1764585675083128300,10.84412841796875,0.7503041341699659,0.5801274541199207,0.3890041398920119
1764585675093082000,10.85408203125,0.6848504689414053,0.6143985570341348,0.42726182822436093
1764585675103037200,10.864037109375,0.6349387293029576,0.6919219416975975,0.45037104726359245
1764585675112991200,10.8739912109375,0.5597825852274895,0.773259331691265,0.41353477003648875
1764585675122945300,10.8839453125,0.44954000326693055,0.77351126062572,0.33971769254505635
1764585675132899300,10.8938994140625,0.33043548493683333,0.8368091360598802,0.26437252870351075
1764585675142853400,10.903853271484374,0.2504272977203131,0.8961170650750399,0.15781784147545694
1764585675152808200,10.91380810546875,0.18875220118239522,0.675659958204627,0.004332183985412121
1764585675162762200,10.92376220703125,0.11365918547101318,0.24386019428968428,-0.13219430152773856
1764585675172716000,10.933716064453124,0.07085355151072144,-0.1070481698334217,-0.2568501703746617
1764585675182670000,10.943670166015625,0.002074029795080423,-0.2705021174997091,-0.3398256829641759
1764585675192625400,10.95362548828125,-0.14271394197642803,-0.25564357106387614,-0.3931982305809855
1764585675202579200,10.9635791015625,-0.2704506065081805,-0.16683832940757273,-0.47282136400267477
1764585675212533200,10.973533203125,-0.3311199600696563,-0.13904431355297564,-0.5304980385541915
1764585675222487300,10.9834873046875,-0.3358972574740648,-0.02973813565969467,-0.565317861392349
1764585675232441000,10.993441162109375,-0.3301291954666376,0.02700023512840271,-0.5381263414755463
1764585675242396200,11.003396240234375,-0.24369375168159602,0.04593348365724086,-0.4808201076716184
1764585675252350200,11.01335009765625,-0.14748773224949835,0.05046352830231189,-0.3939746217809617
1764585675262304300,11.02330419921875,-0.05249883352220058,0.07731120321750641,-0.31508272524327036
1764585675272258300,11.03325830078125,-0.059191024637222284,0.08481529523730277,-0.2236496193014085
1764585675282213000,11.043213134765624,-0.08064750803336501,0.14741115988194942,-0.10047025274783372
1764585675292167200,11.053167236328125,-0.07620572619363665,0.17172317883968352,0.01822773060798645
1764585675302121200,11.063121337890625,-0.08904255754351616,0.19730711742937565,0.10358107824474573
1764585675312075300,11.0730751953125,-0.0847257172577083,0.21278233445882797,0.1871393591582775
1764585675322029000,11.083029052734375,-0.05962357083559036,0.1708136627793312,0.2524408294998109
1764585675331984400,11.092984375,-0.07342632460817694,0.08453472473025321,0.28804201197400686
1764585675341938200,11.102938232421875,-0.07530161696076393,0.01672492482960224,0.3105563338600099
1764585675351892200,11.112892333984375,-0.09568053425326943,-0.0040641806989908215,0.3152197956264019
1764585675361846300,11.12284619140625,-0.07027465564422308,-0.06258242064118386,0.27461364447176456
1764585675371801000,11.132801025390625,-0.038799905450269574,-0.26550620890855786,0.21376827675625681
1764585675381755100,11.142755126953125,-0.0005440437488257885,-0.4552618880450725,0.12042553780078888
1764585675391709400,11.15270947265625,0.06519413750953972,-0.5209872828871012,0.044373686994612214
1764585675401663200,11.162663330078125,0.17191716704182325,-0.5422042584389448,-0.020473902099579572
1764585675411618300,11.172618408203125,0.27700967276282606,-0.4668260691106319,-0.030770109055936336
1764585675421572000,11.182572021484376,0.38810507216043766,-0.40409342634379863,-0.029631898806244134
1764585675431526100,11.192526123046875,0.4562332903604954,-0.4280190763324499,-0.01810176614075899
1764585675441480200,11.202480224609374,0.49819151371121406,-0.43032033901214595,0.027528350655734536
1764585675451434200,11.212434326171875,0.5119475787978619,-0.37923546394109725,0.08111717137172818
1764585675461389300,11.222389404296875,0.43351818520538504,-0.1905512134283781,0.1418954652003944
1764585675471343400,11.23234326171875,0.3732593121409416,0.018883564168214798,0.2554449797518551
1764585675481297200,11.242297119140625,0.2892505840461701,0.1972176855802536,0.31222426707223055
1764585675491251200,11.252251220703124,0.21026531013660132,0.37754385759234427,0.43471959688439965
1764585675501206300,11.262206298828126,0.1776280189692974,0.4769973345130682,0.5337295678213239
1764585675511160000,11.27216015625,0.15605857671797274,0.45515784314870833,0.5503085083089768
1764585675521114000,11.282114013671874,0.10650697562880813,0.4171820404976606,0.5047255916550755
1764585675531068400,11.292068359375,0.061284855111315845,0.46129941464364527,0.42262671576961874
1764585675541022200,11.302022216796875,-0.015096373779699206,0.3954237976759672,0.2854059643819928
1764585675550977300,11.311977294921874,-0.13572013756632803,0.2703893047749996,0.16930866504386066
1764585675560931300,11.321931396484375,-0.24749007522463798,0.30867256594002246,0.10793035949543117
1764585675570885000,11.331885009765625,-0.3360726140409708,0.18621464552879333,0.053275809244066476
1764585675580839200,11.341839111328126,-0.3840261322837323,-0.0552080924808979,-0.054455374417454
1764585675590794200,11.351794189453125,-0.3571645019084215,-0.18988135134279727,-0.20734189697057007
1764585675600748300,11.361748291015624,-0.2911901738066226,-0.1448983002781868,-0.315726868365705
1764585675610702300,11.371702392578126,-0.20767660881765185,-0.15679799690842627,-0.39653848091959953
1764585675620656000,11.38165625,-0.07544767436794936,-0.2282178039997816,-0.5114715587839483
1764585675630610200,11.391610107421876,0.05399754764735698,-0.20608546716868875,-0.5590893422663211
1764585675640565200,11.401565185546875,0.14621515503041446,-0.0675426733970642,-0.5340636220812798
1764585675650519000,11.41151904296875,0.19351883106231688,0.19583938296437262,-0.461890220143646
1764585675660473000,11.42147314453125,0.20417166943661869,0.38270401683449745,-0.4286509444952011
1764585675670427400,11.431427490234375,0.18492102552168072,0.4374094204902649,-0.45372941778078674
1764585675680382200,11.44138232421875,0.14500592537112533,0.37074820610284803,-0.4704829841829836
1764585675690336300,11.451336181640626,0.04430909732580185,0.34875264739394185,-0.4430424579411745
1764585675700290300,11.461290283203125,-0.1296521427642554,0.4398649969488382,-0.3613379882007837
1764585675710244000,11.471244140625,-0.36359132008552547,0.5369458995193243,-0.2314946337133646
1764585675720198100,11.4811982421875,-0.5231277289818972,0.4716571425288915,-0.12059957919344305
1764585675730153200,11.4911533203125,-0.5801408250581472,0.2757236515402794,-0.07275149408653378
1764585675740107300,11.501107177734376,-0.6113759212773293,-0.0688105013757944,-0.09492182484045625
1764585675750061300,11.511061279296875,-0.6304120456587523,-0.3286965323150158,-0.11234715302437544
1764585675760015400,11.521015380859374,-0.6279441942404955,-0.39377193881571293,-0.16335677090212702
1764585675769970200,11.53097021484375,-0.6200415313571691,-0.37727030134797096,-0.1807462971203029
1764585675779924200,11.54092431640625,-0.49051564532108605,-0.4052133702844381,-0.2070098885372281
1764585675789878300,11.550878173828124,-0.32565460733585055,-0.6498012943267822,-0.268408798482269
1764585675799832600,11.56083251953125,-0.08096329598426819,-1.121327503952384,-0.3041213323764503
1764585675809787400,11.570787353515625,0.13977788852453232,-1.5150684631079434,-0.2949826248921454
1764585675819741400,11.580741455078124,0.35957163611538706,-1.8696435330450534,-0.21090090462639927
1764585675829695500,11.590695556640625,0.5264824462372809,-2.2490338952869178,-0.1508783976010978
1764585675839649500,11.6006494140625,0.6519705281246453,-2.504988431996107,-0.06459902116060257
1764585675849603300,11.610603271484376,0.7091781969249248,-2.219865668469667,0.15986746748164296
1764585675859558700,11.62055859375,0.7311007634628564,-1.2957587727069855,0.42922246077284215
1764585675869512400,11.630512451171874,0.847792959954217,-0.5296697710365057,0.5502880500428379
1764585675879466500,11.640466552734376,0.9851754047095775,-0.24601240388751028,0.49127442779913544
1764585675889420500,11.650420654296875,1.113500171327591,0.03405775242447853,0.3503402088463306
1764585675899375400,11.660375244140624,1.0243840370912105,0.5748100584894419,0.3310885420180857
1764585675909329400,11.670329345703125,0.8306367310352623,1.170519112622738,0.45446401566565037
1764585675919283500,11.680283447265625,0.6697323947865516,1.6775404139995573,0.4302605716489255
1764585675929237200,11.6902373046875,0.5020920282810926,2.019398625704646,0.5725863910906016
1764585675939192600,11.700192626953125,0.3056681964922696,2.092474967831373,0.5224494643941522
1764585675949146600,11.710146728515625,0.059310924689844245,1.9943226366370914,0.4547622679598629
1764585675959100400,11.720100341796876,-0.19378237736932932,1.7567594966650009,0.3504647120088339
1764585675969054500,11.730054443359375,-0.4051490728765726,1.4473480950564146,0.22529051837623118
1764585675979008500,11.740008544921874,-0.5836426956992596,1.1203589511811733,0.1400140353679657
1764585675988963300,11.74996337890625,-0.6790297268986701,0.6708259621769189,0.0746614193610847
1764585675998917600,11.759917724609375,-0.7091050586234777,0.004795417582988739,-0.020387392859905956
1764585676008871700,11.76987158203125,-0.7001525944262743,-0.6554542055219411,-0.1173581130541861
1764585676018825500,11.779825439453125,-0.6594248627185821,-1.113971880492568,-0.1865272186093032
1764585676028780500,11.789780517578125,-0.6442836268838494,-1.353473879572749,-0.25551409946531056
1764585676038734300,11.799734375,-0.6041642363328487,-1.443139537450671,-0.2933214136816561
1764585676048688400,11.8096884765625,-0.5144342079818248,-1.4110077846527098,-0.2859871252708137
1764585676058642400,11.819642333984374,-0.3677554540276527,-1.305927700021863,-0.1822444267235696
1764585676068596500,11.829596435546875,-0.13237784140110015,-1.1511720225960016,-0.033925942738354205
1764585676078551600,11.839551513671875,0.16095694321878254,-0.9644657941579818,0.12301160877123474
1764585676088505600,11.849505615234374,0.35660979063510895,-0.8480676121771336,0.22217355539947747
1764585676098459400,11.85945947265625,0.5114331264697015,-0.6560574321120977,0.2628990951500833
1764585676108413400,11.869413330078125,0.5535176796138286,-0.5520832628965378,0.29944325756281615
1764585676118368500,11.879368408203124,0.6594196750868111,-0.44086862103343005,0.3746411218881607
1764585676128322300,11.889322265625,0.742130618456006,-0.3676163378179073,0.49265740659013385
1764585676138276600,11.899276611328125,0.7681504642449319,-0.19153671733438968,0.6662393650390207
1764585676148230700,11.909230712890626,0.7604547951757907,0.14116437444686888,0.8328254732511937
1764585676158184400,11.919184326171875,0.627299393530935,0.47310734133720395,0.997327760926634
1764585676168139500,11.929139404296874,0.413917485743761,0.7130816341042518,1.0383626588873565
1764585676178093300,11.93909326171875,0.23988661448359488,0.7836971390753984,0.9681342535376548
1764585676188047400,11.94904736328125,0.1359703860003501,0.661027037218213,0.7974249279156327
1764585676198001400,11.95900146484375,0.12506729919202625,0.444104534214735,0.6783128108009696
1764585676207956500,11.96895654296875,0.033504356325417754,0.36920097666084767,0.5539722915135323
1764585676217910500,11.97891064453125,-0.08543773798458278,0.337840208235383,0.4710330192811787
1764585676227864600,11.988864501953126,-0.208671318943426,0.11563888804614543,0.2982861964821815
1764585676237818400,11.998818359375,-0.2440823126077652,-0.12006781040430069,0.10784224282056093
1764585676247773400,12.0087734375,-0.33914712611548603,-0.33761808991730213,-0.07206994156315923
1764585676257727500,12.0187275390625,-0.3964384546112269,-0.4406535169780254,-0.16439064399451017
1764585676267681300,12.028681396484375,-0.3983656963467598,-0.4150222321152687,-0.19409926129877567
1764585676277635600,12.038635498046874,-0.38730478862822054,-0.3593658113449812,-0.16463088249117136
1764585676287589600,12.048589599609375,-0.34823877958767113,-0.2342740352988243,-0.06405015510618686
1764585676297544400,12.05854443359375,-0.32479243754856285,-0.16213526628315447,-0.0292401230096817
1764585676307498500,12.06849853515625,-0.2606856568843126,-0.027424598020315168,0.020897826600074765
1764585676317452500,12.07845263671875,-0.20856150189340114,0.1441653098285198,0.05199833665415644
1764585676327406300,12.08840625,-0.16163023937046528,0.3074374711871147,0.06467997744232416
1764585676337361700,12.098361572265626,-0.07334113054275512,0.4539724327564239,0.07328487031087279
1764585676347315500,12.1083154296875,0.050313890698552126,0.4099754701197147,0.0450628383025527
1764585676357269500,12.11826953125,0.15721351890675722,0.27041327017247674,0.0030836452290415764
1764585676367223600,12.1282236328125,0.2528911305505782,0.23548224204480647,-0.022700345977395772
1764585676377177600,12.138177490234375,0.3056482496827841,0.16721651507019997,-0.04918488666862249
1764585676387132400,12.14813232421875,0.3079723817814141,0.08090659736096859,-0.0013433774329721926
1764585676397086500,12.15808642578125,0.2660993524961173,0.07456102772653102,0.03770151575431228
1764585676407040300,12.168040283203124,0.14910861144959925,0.11995616672337055,0.025478578519076107
1764585676416994600,12.17799462890625,0.05703888810463249,0.027391280272603034,0.004290829061716794
1764585676426949400,12.187949462890625,0.004170052226260304,-0.12833411896824837,-0.07502265388891101
1764585676436903400,12.1979033203125,-0.03331774771213531,-0.10568740287423133,-0.08408551965802907
1764585676446857500,12.207857421875,-0.04155424565970897,-0.10123276155292987,-0.10380787273794412
1764585676456811500,12.2178115234375,0.06494330455362797,-0.2456459086626768,-0.07326002813056111
1764585676466765300,12.227765380859376,0.2161843249220401,-0.4424748871862888,-0.01736512242928147
1764585676476720600,12.237720703125,0.33601240828633305,-0.5939303540229797,0.016452683759480714
1764585676486674400,12.24767431640625,0.36059564540088174,-0.6296615926176309,0.05527472797632217
1764585676496628500,12.25762841796875,0.3985896412957459,-0.5552344204038381,0.12813406635150312
1764585676506582500,12.26758251953125,0.405061540723592,-0.3703530693054199,0.22838746147826314
1764585676516537300,12.277537353515624,0.36265725410580635,-0.10932955876886843,0.4344568542949855
1764585676526491400,12.287491455078126,0.24655703215822575,0.0826706844240427,0.5658548908784985
1764585676536445400,12.297445556640625,0.15367606549561022,0.14973463439345358,0.6698346130520105
1764585676546399200,12.307399169921876,0.12091485568769275,-0.0019148937106132505,0.6522402119114995
1764585676556353500,12.317353515625,0.07620821041166782,-0.13459201031923293,0.6088502752572298
1764585676566308600,12.32730859375,0.005331278025358915,-0.0890536634594202,0.5941011805452406
1764585676576262400,12.337262451171876,-0.04943243168890476,0.04319090695083141,0.6080535719215869
1764585676586216400,12.347216552734375,-0.06924063642136752,0.1751309414565563,0.6083220135994255
1764585676596170500,12.35717041015625,-0.14615378023199735,0.23506956959068773,0.6128934131681919
1764585676606125300,12.367125244140626,-0.16585859765522182,0.21933540936410426,0.5713102336749434
1764585676616079600,12.37707958984375,-0.16793372342884538,0.18518179534971713,0.5260225005753338
1764585676626033700,12.38703369140625,-0.18514862373247742,0.2131418154209852,0.5323880900844932
1764585676635987500,12.396987548828125,-0.21692535254769027,0.24021043961048125,0.5262111550152302
1764585676645942500,12.406942626953125,-0.21507307574450968,0.11387772359251976,0.5125593540206551
1764585676655896300,12.416896240234376,-0.2085376826263964,-0.059192778202891344,0.44525531168505544
1764585676665850400,12.426850341796875,-0.19913959355354308,-0.1902805797934532,0.3743994220867753
1764585676675804400,12.436804443359375,-0.08615443488657475,-0.2866583025306463,0.2902640719376504
1764585676685758500,12.446758544921876,0.0703185678511858,-0.6749404117584228,0.16604440255090594
1764585676695713500,12.456713623046875,0.1912345195174217,-1.1994546997278928,0.07571531232818961
1764585676705667600,12.46666748046875,0.2941412056319415,-1.4734247855991125,0.06016279227882623
1764585676715621400,12.476621337890625,0.33100305569171906,-1.4670049816846846,0.12746771139726043
1764585676725575400,12.486575439453125,0.32320188042148945,-1.2973469186812638,0.20040362213999033
1764585676735530500,12.496530517578124,0.34464353157468136,-1.0290554629683495,0.2351326979547739
1764585676745484300,12.506484375,0.4016689756758511,-0.7925947312802076,0.23194544622078536
