time,seconds_elapsed,z,y,x
1764585664336334300,0.097334228515625,-0.55267333984375,-0.7203826904296875,-0.0300140380859375
1764585664346288000,0.1072880859375,-0.56927490234375,-0.7227935791015625,-0.0228271484375
1764585664356242200,0.1172421875,-0.5925140380859375,-0.7039031982421875,-0.0202789306640625
1764585664366196200,0.1271962890625,-0.6200103759765625,-0.6636505126953125,-0.027252197265625
1764585664376150000,0.13714990234375,-0.6512451171875,-0.61810302734375,-0.0427398681640625
1764585664386104000,0.14710400390625,-0.6785888671875,-0.574371337890625,-0.057708740234375
1764585664396058400,0.157058349609375,-0.6905517578125,-0.5327606201171875,-0.0713043212890625
1764585664406013200,0.16701318359375,-0.6983642578125,-0.4998779296875,-0.0798187255859375
1764585664415967200,0.17696728515625,-0.7132720947265625,-0.4841461181640625,-0.0825042724609375
1764585664425921300,0.18692138671875,-0.737640380859375,-0.4888458251953125,-0.077850341796875
1764585664435875000,0.196875,-0.749969482421875,-0.500457763671875,-0.0762176513671875
1764585664445829000,0.2068291015625,-0.764495849609375,-0.5096282958984375,-0.0706329345703125
1764585664455783200,0.216783203125,-0.780792236328125,-0.504730224609375,-0.0573577880859375
1764585664465737200,0.2267373046875,-0.795806884765625,-0.492340087890625,-0.038787841796875
1764585664475691300,0.236691162109375,-0.823516845703125,-0.4852294921875,-0.0240020751953125
1764585664485645300,0.246645263671875,-0.853912353515625,-0.479339599609375,-0.0112152099609375
1764585664495600000,0.25660009765625,-0.8775177001953125,-0.455047607421875,-0.0001220703125
1764585664505554200,0.26655419921875,-0.9152374267578125,-0.4503631591796875,0.0103912353515625
1764585664515508200,0.27650830078125,-0.9582366943359375,-0.474884033203125,0.017791748046875
1764585664525462300,0.286462158203125,-0.9776153564453125,-0.514739990234375,0.0095062255859375
1764585664535416000,0.296416015625,-0.9776153564453125,-0.560089111328125,0.0019073486328125
1764585664545370000,0.3063701171875,-0.96832275390625,-0.587066650390625,-0.0040740966796875
1764585664555324400,0.316324462890625,-0.946807861328125,-0.5699920654296875,-0.01336669921875
1764585664565278200,0.3262783203125,-0.9115142822265625,-0.510589599609375,-0.0102386474609375
1764585664575233300,0.3362333984375,-0.8831329345703125,-0.4584503173828125,0.01605224609375
1764585664585187000,0.34618701171875,-0.8449249267578125,-0.4492645263671875,0.04046630859375
1764585664595141000,0.35614111328125,-0.80224609375,-0.306427001953125,-0.023834228515625
1764585664605095200,0.36609521484375,-0.9496002197265625,-0.304962158203125,-0.02471923828125
1764585664615049200,0.37604931640625,-0.9878997802734375,-0.471282958984375,0.09100341796875
1764585664625003000,0.3860029296875,-1.0175018310546875,-0.477264404296875,0.064483642578125
1764585664634957300,0.395957275390625,-1.019134521484375,-0.4690704345703125,0.067138671875
1764585664644911400,0.405911376953125,-1.0497589111328125,-0.4701690673828125,0.1011199951171875
1764585664654866200,0.4158662109375,-1.05499267578125,-0.4314727783203125,0.10125732421875
1764585664664820200,0.4258203125,-1.0304412841796875,-0.4008026123046875,0.1059722900390625
1764585664674774300,0.435774169921875,-1.0081329345703125,-0.388397216796875,0.1085968017578125
1764585664684728000,0.44572802734375,-1.0052337646484375,-0.3831939697265625,0.1000213623046875
1764585664694682000,0.45568212890625,-1.0377655029296875,-0.3887786865234375,0.1021728515625
1764585664704636400,0.465636474609375,-1.05047607421875,-0.38226318359375,0.09954833984375
1764585664714590200,0.475590087890625,-1.0319976806640625,-0.3655548095703125,0.1009521484375
1764585664724544300,0.485544189453125,-1.0043792724609375,-0.36273193359375,0.0832672119140625
1764585664734499300,0.495499267578125,-0.9761962890625,-0.3594512939453125,0.056427001953125
1764585664744453000,0.505453125,-0.9355926513671875,-0.35888671875,0.052032470703125
1764585664754407200,0.5154072265625,-0.893768310546875,-0.3993377685546875,0.0872344970703125
1764585664764361200,0.525361328125,-0.850311279296875,-0.4436492919921875,0.0919036865234375
1764585664774315000,0.53531494140625,-0.8341522216796875,-0.4698638916015625,0.1114654541015625
1764585664784268800,0.545268798828125,-0.83587646484375,-0.482666015625,0.1687774658203125
1764585664794222800,0.555222900390625,-0.78985595703125,-0.4852294921875,0.151214599609375
1764585664804177000,0.565177001953125,-0.8601226806640625,-0.449676513671875,0.0978546142578125
1764585664814132000,0.575132080078125,-0.9029693603515625,-0.4322052001953125,0.0931396484375
1764585664824086000,0.5850859375,-0.939208984375,-0.4289398193359375,0.1089019775390625
1764585664834039800,0.595039794921875,-0.968475341796875,-0.4290771484375,0.129974365234375
1764585664843993900,0.604993896484375,-0.9844970703125,-0.4197845458984375,0.15533447265625
1764585664853948000,0.614947998046875,-1.017303466796875,-0.41064453125,0.16265869140625
1764585664863902000,0.62490185546875,-1.043243408203125,-0.425567626953125,0.1911163330078125
1764585664873855700,0.634855712890625,-1.0213623046875,-0.419952392578125,0.199310302734375
1764585664883810000,0.64481005859375,-0.9876251220703125,-0.4156036376953125,0.166046142578125
1764585664893764900,0.654764892578125,-0.9619903564453125,-0.4331512451171875,0.1423187255859375
1764585664903719000,0.664718994140625,-0.9188079833984375,-0.4586029052734375,0.13592529296875
1764585664913673000,0.6746728515625,-0.876983642578125,-0.478240966796875,0.1436614990234375
1764585664923627000,0.684626953125,-0.8335113525390625,-0.4627532958984375,0.156341552734375
1764585664933580800,0.694580810546875,-0.8123626708984375,-0.4488983154296875,0.1640777587890625
1764585664943534800,0.704534912109375,-0.8132476806640625,-0.4425811767578125,0.1567840576171875
1764585664953489000,0.714489013671875,-0.8152008056640625,-0.4448089599609375,0.1383819580078125
1764585664963443000,0.72444287109375,-0.8135223388671875,-0.4577178955078125,0.126495361328125
1764585664973398000,0.73439794921875,-0.8300628662109375,-0.487548828125,0.1343994140625
1764585664983352000,0.74435205078125,-0.850067138671875,-0.4921875,0.133758544921875
1764585664993305900,0.754305908203125,-0.8306121826171875,-0.5030517578125,0.141357421875
1764585665003260000,0.764260009765625,-0.8103179931640625,-0.4964141845703125,0.159454345703125
1764585665013214000,0.7742138671875,-0.80633544921875,-0.48712158203125,0.185638427734375
1764585665023167700,0.784167724609375,-0.8095245361328125,-0.483612060546875,0.2080535888671875
1764585665033121800,0.794121826171875,-0.8033905029296875,-0.48712158203125,0.202239990234375
1764585665043077000,0.8040771484375,-0.8019256591796875,-0.509857177734375,0.196868896484375
1764585665053031000,0.814031005859375,-0.790191650390625,-0.5318450927734375,0.201568603515625
1764585665062985000,0.82398486328125,-0.769775390625,-0.5478668212890625,0.2099761962890625
1764585665072939000,0.83393896484375,-0.764862060546875,-0.5569000244140625,0.215301513671875
1764585665082892800,0.843892822265625,-0.81085205078125,-0.5901031494140625,0.224151611328125
1764585665092846800,0.853846923828125,-0.8756866455078125,-0.5860595703125,0.222930908203125
1764585665102801000,0.86380078125,-0.916534423828125,-0.530517578125,0.249725341796875
1764585665112755000,0.8737548828125,-0.9300537109375,-0.4970245361328125,0.2691802978515625
1764585665122710000,0.8837099609375,-0.9254302978515625,-0.504241943359375,0.2546539306640625
1764585665132664000,0.8936640625,-0.904083251953125,-0.51416015625,0.21221923828125
1764585665142617900,0.903617919921875,-0.880035400390625,-0.5445709228515625,0.156341552734375
1764585665152572000,0.913572021484375,-0.8400115966796875,-0.5665740966796875,0.0875091552734375
1764585665162526000,0.92352587890625,-0.778228759765625,-0.5692596435546875,0.0708770751953125
1764585665172479700,0.933479736328125,-0.74090576171875,-0.5910797119140625,0.0741729736328125
1764585665182433800,0.943433837890625,-0.7158355712890625,-0.614288330078125,0.079559326171875
1764585665192387800,0.953387939453125,-0.7054290771484375,-0.626312255859375,0.07196044921875
1764585665202343000,0.963343017578125,-0.7150115966796875,-0.62872314453125,0.0759124755859375
1764585665212297000,0.973296875,-0.7355194091796875,-0.6255340576171875,0.0852813720703125
1764585665222251000,0.9832509765625,-0.775482177734375,-0.6344146728515625,0.096282958984375
1764585665232204800,0.993204833984375,-0.8292999267578125,-0.63922119140625,0.1177215576171875
1764585665242158800,1.003158935546875,-0.865478515625,-0.6257171630859375,0.138641357421875
1764585665252113000,1.01311279296875,-0.88446044921875,-0.62445068359375,0.1538848876953125
1764585665262067000,1.02306689453125,-0.88702392578125,-0.629913330078125,0.16546630859375
1764585665272022000,1.03302197265625,-0.8820953369140625,-0.6460723876953125,0.1746063232421875
1764585665281976000,1.04297607421875,-0.880401611328125,-0.6668243408203125,0.161895751953125
1764585665291929900,1.052929931640625,-0.8520965576171875,-0.6216888427734375,0.2042236328125
1764585665301884000,1.0628837890625,-0.857208251953125,-0.6212158203125,0.231689453125
1764585665311838000,1.072837890625,-0.8669281005859375,-0.6229095458984375,0.2634735107421875
1764585665321792000,1.0827919921875,-0.8630828857421875,-0.602691650390625,0.3047637939453125
1764585665331745800,1.092745849609375,-0.8550262451171875,-0.5925140380859375,0.308837890625
1764585665341699800,1.102699951171875,-0.827423095703125,-0.588623046875,0.2810821533203125
1764585665351655000,1.112655029296875,-0.7919921875,-0.575897216796875,0.2479095458984375
1764585665361609000,1.12260888671875,-0.727447509765625,-0.4871673583984375,0.289459228515625
1764585665371563000,1.13256298828125,-0.77630615234375,-0.56768798828125,0.2281341552734375
1764585665381517000,1.14251708984375,-0.8333740234375,-0.6562957763671875,0.1628265380859375
1764585665391470800,1.152470947265625,-0.8472137451171875,-0.6456451416015625,0.160675048828125
1764585665401425000,1.1624248046875,-0.85467529296875,-0.636749267578125,0.172027587890625
1764585665411379000,1.17237890625,-0.8329925537109375,-0.6089630126953125,0.2095184326171875
1764585665421332700,1.182332763671875,-0.752655029296875,-0.5523681640625,0.241424560546875
1764585665431288000,1.1922880859375,-0.7598724365234375,-0.666168212890625,0.140716552734375
1764585665441241900,1.202241943359375,-0.74847412109375,-0.7491455078125,0.04217529296875
1764585665451196000,1.21219580078125,-0.69830322265625,-0.7335357666015625,0.0332794189453125
1764585665461150000,1.22214990234375,-0.6505279541015625,-0.6891021728515625,0.09051513671875
1764585665471104000,1.23210400390625,-0.6473846435546875,-0.6886444091796875,0.126373291015625
1764585665481057800,1.242057861328125,-0.6611328125,-0.6811981201171875,0.1678314208984375
1764585665491011800,1.25201171875,-0.665924072265625,-0.66375732421875,0.170166015625
1764585665500967000,1.261966796875,-0.6821746826171875,-0.67999267578125,0.1175384521484375
1764585665510921000,1.2719208984375,-0.6841888427734375,-0.6898040771484375,0.0669403076171875
1764585665520875000,1.281875,-0.658660888671875,-0.67144775390625,0.0582275390625
1764585665530829000,1.2918291015625,-0.6381378173828125,-0.6607208251953125,0.0845489501953125
1764585665540781000,1.301781005859375,-0.6079254150390625,-0.6491546630859375,0.1212921142578125
1764585665550735000,1.311735107421875,-0.5848846435546875,-0.661468505859375,0.149444580078125
1764585665560689000,1.32168896484375,-0.55609130859375,-0.664459228515625,0.1650390625
1764585665570643000,1.331642822265625,-0.5538330078125,-0.68548583984375,0.1325531005859375
1764585665580597000,1.341596923828125,-0.5551605224609375,-0.678497314453125,0.1109161376953125
1764585665590551800,1.3515517578125,-0.576019287109375,-0.6465911865234375,0.1049652099609375
1764585665600505900,1.361505859375,-0.63653564453125,-0.629425048828125,0.0944671630859375
1764585665610460200,1.371460205078125,-0.6966400146484375,-0.6163482666015625,0.0865478515625
1764585665620414000,1.3814140625,-0.7246856689453125,-0.598480224609375,0.10797119140625
1764585665630368000,1.391367919921875,-0.737335205078125,-0.604461669921875,0.1470794677734375
1764585665640322000,1.401322021484375,-0.75482177734375,-0.677154541015625,0.1466522216796875
1764585665650275800,1.41127587890625,-0.7157745361328125,-0.712615966796875,0.15313720703125
1764585665660231000,1.42123095703125,-0.6593170166015625,-0.7294921875,0.142120361328125
1764585665670185000,1.43118505859375,-0.6165008544921875,-0.7471466064453125,0.107635498046875
1764585665680138800,1.441138671875,-0.5879669189453125,-0.7541656494140625,0.0883026123046875
1764585665690093000,1.451093017578125,-0.5927581787109375,-0.7433319091796875,0.0930328369140625
1764585665700047000,1.461047119140625,-0.6405029296875,-0.7294464111328125,0.1381683349609375
1764585665710001000,1.4710009765625,-0.696563720703125,-0.7224273681640625,0.219390869140625
1764585665719955000,1.480954833984375,-0.7497406005859375,-0.71636962890625,0.291046142578125
1764585665729910000,1.490909912109375,-0.775848388671875,-0.7209930419921875,0.3379364013671875
1764585665739863800,1.50086376953125,-0.7786407470703125,-0.71575927734375,0.33685302734375
1764585665749817900,1.51081787109375,-0.7685089111328125,-0.71429443359375,0.28326416015625
1764585665759772000,1.52077197265625,-0.7263946533203125,-0.707550048828125,0.2400970458984375
1764585665769726000,1.530725830078125,-0.6480255126953125,-0.71014404296875,0.2311248779296875
1764585665779680500,1.540680419921875,-0.5902557373046875,-0.7146148681640625,0.2266387939453125
1764585665789634600,1.550634521484375,-0.5707550048828125,-0.704071044921875,0.2292938232421875
1764585665799588400,1.56058837890625,-0.5807342529296875,-0.7000885009765625,0.233489990234375
1764585665809543400,1.57054345703125,-0.6279296875,-0.6764678955078125,0.2498779296875
1764585665819497500,1.58049755859375,-0.7008056640625,-0.6513824462890625,0.28570556640625
1764585665829451300,1.590451171875,-0.7894744873046875,-0.6273040771484375,0.295684814453125
1764585665839405600,1.600405517578125,-0.8422088623046875,-0.5972747802734375,0.2872772216796875
1764585665849359600,1.610359619140625,-0.8232574462890625,-0.600341796875,0.22418212890625
1764585665859313400,1.6203134765625,-0.7283477783203125,-0.6060028076171875,0.15997314453125
1764585665869267500,1.630267333984375,-0.5753173828125,-0.629974365234375,0.125823974609375
1764585665879222300,1.64022216796875,-0.463470458984375,-0.6726531982421875,0.1068572998046875
1764585665889176300,1.65017626953125,-0.405975341796875,-0.711639404296875,0.11370849609375
1764585665899130400,1.66013037109375,-0.3832244873046875,-0.7027130126953125,0.126861572265625
1764585665909084400,1.67008447265625,-0.3887481689453125,-0.6404571533203125,0.1713714599609375
1764585665919038500,1.68003857421875,-0.3771820068359375,-0.4464111328125,0.229736328125
1764585665928992500,1.689992431640625,-0.470916748046875,-0.5673980712890625,0.1295013427734375
1764585665938946600,1.699946533203125,-0.5453948974609375,-0.6709442138671875,0.016510009765625
1764585665948901400,1.7099013671875,-0.5155181884765625,-0.61260986328125,0.186248779296875
1764585665958855400,1.71985546875,-0.487457275390625,-0.6118927001953125,0.2573089599609375
1764585665968809500,1.7298095703125,-0.4367523193359375,-0.601806640625,0.28631591796875
1764585665978763300,1.73976318359375,-0.3822784423828125,-0.6128082275390625,0.2881317138671875
1764585665988717300,1.74971728515625,-0.337371826171875,-0.61669921875,0.305633544921875
1764585665998671600,1.759671630859375,-0.3471832275390625,-0.6106719970703125,0.3234100341796875
1764585666008625400,1.76962548828125,-0.3948516845703125,-0.613616943359375,0.372711181640625
1764585666018579500,1.779579345703125,-0.5692138671875,-0.6495361328125,0.440643310546875
1764585666028534500,1.789534423828125,-0.8388214111328125,-0.7317657470703125,0.480499267578125
1764585666038488300,1.79948828125,-0.929443359375,-0.8180084228515625,0.4993133544921875
1764585666048442400,1.8094423828125,-1.02490234375,-0.862518310546875,0.4959259033203125
1764585666058396400,1.819396484375,-1.0303955078125,-0.8538055419921875,0.480377197265625
1764585666068350200,1.82935009765625,-0.9910736083984375,-0.8120269775390625,0.4863433837890625
1764585666078304500,1.839304443359375,-0.9320220947265625,-0.7203216552734375,0.4922027587890625
1764585666088258600,1.849258544921875,-0.863067626953125,-0.619293212890625,0.4781036376953125
1764585666098213400,1.85921337890625,-0.93060302734375,-0.6387786865234375,0.422943115234375
1764585666108167400,1.86916748046875,-0.9800567626953125,-0.6677703857421875,0.3603363037109375
1764585666118121500,1.87912158203125,-0.974090576171875,-0.6643524169921875,0.323974609375
1764585666128075300,1.8890751953125,-0.9511566162109375,-0.64593505859375,0.3085784912109375
1764585666138029300,1.899029296875,-0.917999267578125,-0.633453369140625,0.2947845458984375
1764585666147983400,1.9089833984375,-0.85791015625,-0.616973876953125,0.2861175537109375
1764585666157937400,1.9189375,-0.7968597412109375,-0.5639801025390625,0.2692108154296875
1764585666167892500,1.928892578125,-0.73541259765625,-0.545623779296875,0.31341552734375
1764585666177846500,1.938846435546875,-0.7210845947265625,-0.5715179443359375,0.3503875732421875
1764585666187800300,1.94880029296875,-0.7347869873046875,-0.5556640625,0.3479461669921875
1764585666197754400,1.95875439453125,-0.74639892578125,-0.5293426513671875,0.3240509033203125
1764585666207708400,1.96870849609375,-0.77423095703125,-0.5008697509765625,0.2694091796875
1764585666217662200,1.978662109375,-0.790283203125,-0.4938812255859375,0.22491455078125
1764585666227616300,1.9886162109375,-0.781097412109375,-0.49676513671875,0.2060394287109375
1764585666237571600,1.998571533203125,-0.7526397705078125,-0.50567626953125,0.2116851806640625
1764585666247525400,2.008525390625,-0.704345703125,-0.5440826416015625,0.2518768310546875
1764585666257479400,2.0184794921875,-0.63946533203125,-0.568572998046875,0.3261566162109375
1764585666267433500,2.02843359375,-0.597076416015625,-0.5967254638671875,0.4181365966796875
1764585666277387300,2.03838720703125,-0.60015869140625,-0.6318511962890625,0.4703521728515625
1764585666287341300,2.04834130859375,-0.6486358642578125,-0.6534576416015625,0.492034912109375
1764585666297295400,2.05829541015625,-0.6880950927734375,-0.6266021728515625,0.491485595703125
1764585666307250400,2.06825048828125,-0.7078094482421875,-0.61651611328125,0.4827728271484375
1764585666317204500,2.07820458984375,-0.732177734375,-0.634246826171875,0.4701995849609375
1764585666327158500,2.088158447265625,-0.7312164306640625,-0.6449737548828125,0.4690093994140625
1764585666337112300,2.0981123046875,-0.71527099609375,-0.6420135498046875,0.46124267578125
1764585666347066400,2.10806640625,-0.706756591796875,-0.6260528564453125,0.452392578125
1764585666357020400,2.1180205078125,-0.704864501953125,-0.6096343994140625,0.4521331787109375
1764585666366974500,2.127974365234375,-0.7140350341796875,-0.5988311767578125,0.462677001953125
1764585666376929500,2.137929443359375,-0.7370147705078125,-0.6053924560546875,0.473724365234375
1764585666386883600,2.147883544921875,-0.7700653076171875,-0.611785888671875,0.4828033447265625
1764585666396837400,2.15783740234375,-0.795989990234375,-0.600250244140625,0.4755859375
1764585666406791400,2.16779150390625,-0.8075714111328125,-0.578857421875,0.4656829833984375
1764585666416745500,2.177745361328125,-0.810150146484375,-0.56219482421875,0.4593963623046875
1764585666426699500,2.187699462890625,-0.793304443359375,-0.5470428466796875,0.4481658935546875
1764585666436653300,2.1976533203125,-0.790069580078125,-0.5482635498046875,0.4398193359375
1764585666446608600,2.207608642578125,-0.7898406982421875,-0.5606231689453125,0.43359375
1764585666456562400,2.2175625,-0.7684783935546875,-0.567474365234375,0.4525146484375
1764585666466516500,2.2275166015625,-0.737579345703125,-0.5693817138671875,0.4594268798828125
1764585666476470500,2.237470458984375,-0.748443603515625,-0.5948486328125,0.4366455078125
1764585666486424300,2.24742431640625,-0.781646728515625,-0.6709442138671875,0.4683685302734375
1764585666496378400,2.25737841796875,-0.7528076171875,-0.67010498046875,0.4871368408203125
1764585666506332400,2.26733251953125,-0.7186431884765625,-0.6260833740234375,0.49029541015625
1764585666516287200,2.277287353515625,-0.7140960693359375,-0.5938262939453125,0.4893035888671875
1764585666526241500,2.287241455078125,-0.72125244140625,-0.6030731201171875,0.4766693115234375
1764585666536195600,2.297195556640625,-0.7126312255859375,-0.6587066650390625,0.476776123046875
1764585666546149400,2.3071494140625,-0.67047119140625,-0.7000579833984375,0.444915771484375
1764585666556103400,2.317103515625,-0.6120147705078125,-0.707427978515625,0.3724365234375
1764585666566057500,2.327057373046875,-0.5457611083984375,-0.7136383056640625,0.2975006103515625
1764585666576011500,2.337011474609375,-0.50030517578125,-0.7272796630859375,0.2611541748046875
1764585666585966300,2.34696630859375,-0.513885498046875,-0.716888427734375,0.2812652587890625
1764585666595920400,2.35692041015625,-0.57415771484375,-0.67535400390625,0.3194732666015625
1764585666605874400,2.36687451171875,-0.6423797607421875,-0.626800537109375,0.352935791015625
1764585666615828500,2.376828369140625,-0.6852264404296875,-0.574188232421875,0.3810882568359375
1764585666625782500,2.386782470703125,-0.67803955078125,-0.640594482421875,0.337615966796875
1764585666635736600,2.396736572265625,-0.6659698486328125,-0.6577911376953125,0.3114166259765625
1764585666645690400,2.4066904296875,-0.7076416015625,-0.6210174560546875,0.2757720947265625
1764585666655645400,2.4166455078125,-0.8148040771484375,-0.592926025390625,0.2511138916015625
1764585666665599200,2.42659912109375,-0.8975830078125,-0.5302886962890625,0.2735748291015625
1764585666675553300,2.43655322265625,-0.9158935546875,-0.550872802734375,0.32440185546875
1764585666685507600,2.446507568359375,-0.89874267578125,-0.5919036865234375,0.414337158203125
1764585666695461600,2.456461669921875,-0.86077880859375,-0.58465576171875,0.4659271240234375
1764585666705415400,2.46641552734375,-0.80157470703125,-0.605560302734375,0.43133544921875
1764585666715369500,2.476369384765625,-0.7285919189453125,-0.641448974609375,0.3634033203125
1764585666725324300,2.48632421875,-0.6604461669921875,-0.6782989501953125,0.3246612548828125
1764585666735278300,2.4962783203125,-0.617401123046875,-0.7159881591796875,0.2917327880859375
1764585666745232400,2.506232421875,-0.591552734375,-0.74810791015625,0.2198486328125
1764585666755186400,2.5161865234375,-0.529296875,-0.628662109375,0.201995849609375
1764585666765140500,2.526140380859375,-0.5247955322265625,-0.55517578125,0.22454833984375
1764585666775094800,2.5360947265625,-0.5904541015625,-0.68292236328125,0.22613525390625
1764585666785048800,2.546048828125,-0.6082916259765625,-0.6949005126953125,0.2964019775390625
1764585666795004000,2.55600390625,-0.6245574951171875,-0.6888580322265625,0.2995758056640625
1764585666804958000,2.5659580078125,-0.6044464111328125,-0.6476593017578125,0.27398681640625
1764585666814911700,2.575911865234375,-0.6670074462890625,-0.683502197265625,0.2685546875
1764585666824865800,2.58586572265625,-0.67950439453125,-0.633758544921875,0.299407958984375
1764585666834819800,2.59581982421875,-0.694915771484375,-0.6674957275390625,0.2402801513671875
1764585666844774000,2.60577392578125,-0.6777801513671875,-0.655487060546875,0.197601318359375
1764585666854727700,2.615727783203125,-0.67572021484375,-0.6442413330078125,0.1914215087890625
1764585666864683000,2.62568310546875,-0.70703125,-0.625152587890625,0.2038726806640625
1764585666874636800,2.63563671875,-0.7683563232421875,-0.6026611328125,0.1993560791015625
1764585666884590800,2.6455908203125,-0.79681396484375,-0.574493408203125,0.2124786376953125
1764585666894545000,2.655544921875,-0.8142547607421875,-0.5780487060546875,0.223236083984375
1764585666904498700,2.665498779296875,-0.8329925537109375,-0.57086181640625,0.2414093017578125
1764585666914452700,2.67545263671875,-0.8545379638671875,-0.562469482421875,0.2474822998046875
1764585666924406800,2.68540673828125,-0.8682708740234375,-0.581451416015625,0.2293243408203125
1764585666934361600,2.695361572265625,-0.8067779541015625,-0.6044769287109375,0.21380615234375
1764585666944316000,2.70531591796875,-0.6633453369140625,-0.6542510986328125,0.2132415771484375
1764585666954270000,2.71527001953125,-0.5405731201171875,-0.702392578125,0.2044219970703125
1764585666964223700,2.7252236328125,-0.49468994140625,-0.7293853759765625,0.192230224609375
1764585666974177800,2.735177734375,-0.5042877197265625,-0.7262725830078125,0.1804046630859375
1764585666984131800,2.7451318359375,-0.5546112060546875,-0.719024658203125,0.16546630859375
1764585666994086000,2.7550859375,-0.6411895751953125,-0.692596435546875,0.1545562744140625
1764585667004040700,2.765040771484375,-0.7117462158203125,-0.660003662109375,0.168548583984375
1764585667013994800,2.774994873046875,-0.7177276611328125,-0.6467132568359375,0.2175140380859375
1764585667023948800,2.78494873046875,-0.641265869140625,-0.663787841796875,0.264556884765625
1764585667033902800,2.79490283203125,-0.535308837890625,-0.69403076171875,0.270263671875
1764585667043857000,2.80485693359375,-0.4454498291015625,-0.6978759765625,0.2660369873046875
1764585667053811000,2.81481103515625,-0.4503936767578125,-0.73529052734375,0.2237396240234375
1764585667063764700,2.8247646484375,-0.508880615234375,-0.7504119873046875,0.18603515625
1764585667073719800,2.8347197265625,-0.5942230224609375,-0.722869873046875,0.1955108642578125
1764585667083673600,2.844673583984375,-0.6512603759765625,-0.6782379150390625,0.205230712890625
1764585667093627600,2.854627685546875,-0.6924285888671875,-0.6291961669921875,0.2010955810546875
1764585667103582000,2.86458203125,-0.7018890380859375,-0.613189697265625,0.2145843505859375
1764585667113536000,2.874535888671875,-0.695159912109375,-0.653167724609375,0.2066650390625
1764585667123489800,2.88448974609375,-0.6739959716796875,-0.6757354736328125,0.2089080810546875
1764585667133443800,2.89444384765625,-0.6787261962890625,-0.677398681640625,0.21746826171875
1764585667143398700,2.904398681640625,-0.6763916015625,-0.6660614013671875,0.198394775390625
1764585667153352700,2.914352783203125,-0.6961517333984375,-0.6355743408203125,0.1786041259765625
1764585667163306800,2.924306640625,-0.713409423828125,-0.58721923828125,0.1777801513671875
1764585667173260800,2.9342607421875,-0.7462310791015625,-0.55169677734375,0.178680419921875
1764585667183214800,2.94421484375,-0.7875213623046875,-0.523101806640625,0.1495513916015625
1764585667193169000,2.9541689453125,-0.805145263671875,-0.4628143310546875,0.114349365234375
1764585667203123700,2.964123779296875,-0.8022918701171875,-0.37860107421875,0.0966949462890625
1764585667213077800,2.974077880859375,-0.7804412841796875,-0.3236236572265625,0.0801849365234375
1764585667223031800,2.98403173828125,-0.749725341796875,-0.3103179931640625,0.0992279052734375
1764585667232985900,2.99398583984375,-0.7645416259765625,-0.307281494140625,0.131256103515625
1764585667242939600,3.003939697265625,-0.7759246826171875,-0.31396484375,0.138214111328125
1764585667252893700,3.013893798828125,-0.75421142578125,-0.305908203125,0.149932861328125
1764585667262848000,3.023847900390625,-0.8074493408203125,-0.2518463134765625,0.154083251953125
1764585667272802800,3.033802734375,-0.7789306640625,-0.16815185546875,0.0990753173828125
1764585667282756900,3.0437568359375,-0.6610260009765625,-0.0677490234375,0.0329132080078125
1764585667292710700,3.053710693359375,-0.564971923828125,0.0050201416015625,-0.0241546630859375
1764585667302664700,3.063664794921875,-0.4159698486328125,0.0610809326171875,-0.04443359375
1764585667312618800,3.07361865234375,-0.2439727783203125,0.1137847900390625,-0.0104522705078125
1764585667322572800,3.08357275390625,-0.077789306640625,0.169036865234375,0.03900146484375
1764585667332527900,3.09352783203125,0.0840301513671875,0.2464447021484375,0.100555419921875
1764585667342482000,3.10348193359375,0.2026519775390625,0.337615966796875,0.1448974609375
1764585667352435700,3.113435791015625,0.2812042236328125,0.47857666015625,0.169158935546875
1764585667362389800,3.1233896484375,0.3583221435546875,0.596527099609375,0.214019775390625
1764585667372343800,3.13334375,0.4585113525390625,0.67388916015625,0.2693939208984375
1764585667382297900,3.1432978515625,0.5489501953125,0.7422943115234375,0.3535614013671875
1764585667392251600,3.153251708984375,0.6139068603515625,0.771636962890625,0.4423980712890625
1764585667402207000,3.16320703125,0.6197967529296875,0.8223724365234375,0.523223876953125
1764585667412160800,3.173160888671875,0.5852203369140625,0.8909912109375,0.6178741455078125
1764585667422114800,3.18311474609375,0.435089111328125,0.94622802734375,0.7371978759765625
1764585667432068900,3.19306884765625,0.1909027099609375,1.119537353515625,0.9510345458984375
1764585667442023000,3.20302294921875,-0.12237548828125,1.3013153076171875,1.2522735595703125
1764585667451976700,3.212976806640625,-0.495269775390625,1.4257659912109375,1.5317535400390625
1764585667461931800,3.222931884765625,-0.859130859375,1.5981903076171875,1.7766571044921875
1764585667471885800,3.2328857421875,-1.116424560546875,1.7154083251953125,2.05126953125
1764585667481839900,3.24283984375,-1.15863037109375,1.6987762451171875,2.3684844970703125
1764585667491794000,3.2527939453125,-1.03302001953125,1.525238037109375,2.7480010986328125
1764585667501748000,3.262748046875,-0.811981201171875,1.238983154296875,3.07232666015625
1764585667511701800,3.27270166015625,-0.5758514404296875,0.8656005859375,3.28179931640625
1764585667521656800,3.28265673828125,-0.3541107177734375,0.5407257080078125,3.4654998779296875
1764585667531610600,3.292610595703125,-0.1205596923828125,0.30828857421875,3.6109771728515625
1764585667541564700,3.302564697265625,0.114776611328125,0.1162872314453125,3.6757354736328125
1764585667551519000,3.31251904296875,0.3351287841796875,-0.0204925537109375,3.689697265625
1764585667561472800,3.32247265625,0.5325164794921875,-0.1055450439453125,3.6217498779296875
1764585667571426800,3.3324267578125,0.8076171875,-0.1471405029296875,3.447235107421875
1764585667581380900,3.342380859375,1.17333984375,-0.162017822265625,3.097320556640625
1764585667591335700,3.352335693359375,1.20416259765625,-0.2823028564453125,2.437774658203125
1764585667601289700,3.362289794921875,1.181243896484375,-0.1642303466796875,1.90447998046875
1764585667611243800,3.372243896484375,1.282012939453125,0.0337371826171875,1.2603912353515625
1764585667621197800,3.38219775390625,1.4637298583984375,0.20733642578125,0.6799774169921875
1764585667631151900,3.39215185546875,1.1129150390625,0.2527008056640625,0.449127197265625
1764585667641106000,3.40210595703125,0.7353363037109375,0.3388671875,0.394561767578125
1764585667651060700,3.412060791015625,0.509368896484375,0.2916107177734375,0.4720611572265625
1764585667661014800,3.422014892578125,0.2498779296875,0.2357330322265625,0.1641845703125
1764585667670968800,3.43196875,0.188629150390625,0.0135955810546875,0.3155670166015625
1764585667680922600,3.441922607421875,0.252349853515625,0.0876617431640625,0.173492431640625
1764585667690876700,3.451876708984375,0.33453369140625,-0.0437164306640625,0.39984130859375
1764585667700830700,3.461830810546875,0.1690216064453125,-0.276336669921875,0.5298309326171875
1764585667710785800,3.471785888671875,-0.02880859375,0.1117401123046875,0.4533538818359375
1764585667720739800,3.48173974609375,0.192474365234375,-0.0557403564453125,0.73760986328125
1764585667730694000,3.49169384765625,0.160888671875,-0.6655731201171875,1.0041351318359375
1764585667740647700,3.501647705078125,-0.004150390625,-0.797821044921875,1.2236328125
1764585667750601700,3.511601806640625,0.1453704833984375,-0.1624603271484375,1.10662841796875
1764585667760555800,3.5215556640625,-0.120330810546875,0.3754119873046875,1.0770721435546875
1764585667770510800,3.5315107421875,-0.1259002685546875,0.7597198486328125,0.7403717041015625
1764585667780465000,3.54146484375,-0.6165313720703125,1.0760650634765625,0.4218597412109375
1764585667790419000,3.5514189453125,-0.828338623046875,1.2990570068359375,0.537567138671875
1764585667800372700,3.561372802734375,-0.7250518798828125,1.665069580078125,0.7728271484375
1764585667810326800,3.571326904296875,-0.7427520751953125,1.7307586669921875,1.1600799560546875
1764585667820281000,3.581281005859375,-0.539306640625,1.5913848876953125,1.4232635498046875
1764585667830236000,3.59123583984375,-0.1599578857421875,1.27142333984375,1.2692413330078125
1764585667840190000,3.60118994140625,0.203582763671875,1.1125335693359375,1.1279144287109375
1764585667850144000,3.61114404296875,0.6014404296875,0.9279022216796875,0.9171600341796875
1764585667860097800,3.621097900390625,0.7790679931640625,0.6941375732421875,0.75146484375
1764585667870051800,3.6310517578125,0.8289794921875,0.6503143310546875,0.675811767578125
1764585667880007000,3.6410068359375,0.644317626953125,0.6166534423828125,0.6405181884765625
1764585667889961000,3.6509609375,0.5066070556640625,0.5363616943359375,0.6433868408203125
1764585667899915000,3.6609150390625,0.3948211669921875,0.4773101806640625,0.56304931640625
1764585667909869000,3.670869140625,0.25616455078125,0.43505859375,0.471832275390625
1764585667919822800,3.68082275390625,0.1904449462890625,0.4262237548828125,0.4256744384765625
1764585667929777000,3.69077685546875,0.17535400390625,0.4217681884765625,0.396484375
1764585667939731700,3.700731689453125,0.18414306640625,0.4076080322265625,0.3712615966796875
1764585667949685800,3.710685791015625,0.1884002685546875,0.4109649658203125,0.3790740966796875
1764585667959640000,3.72064013671875,0.1673583984375,0.4123992919921875,0.3731536865234375
1764585667969594000,3.730593994140625,0.0797882080078125,0.3871917724609375,0.3298797607421875
1764585667979548000,3.7405478515625,0.0606231689453125,0.40960693359375,0.3991851806640625
1764585667989502000,3.750501953125,0.10546875,0.5096893310546875,0.56134033203125
1764585667999456800,3.760456787109375,0.2319183349609375,0.5596466064453125,0.893463134765625
1764585668009410800,3.770410888671875,0.2304229736328125,0.580230712890625,1.1859588623046875
1764585668019364900,3.78036474609375,0.0997772216796875,0.6544342041015625,1.318878173828125
1764585668029319000,3.79031884765625,0.0263824462890625,0.7379150390625,1.3148956298828125
1764585668039273000,3.80027294921875,0.0178375244140625,0.7755584716796875,1.22119140625
1764585668049228000,3.81022802734375,0.09149169921875,0.81915283203125,1.09259033203125
1764585668059181800,3.820181884765625,0.2466888427734375,0.9403076171875,0.961090087890625
1764585668069136000,3.830135986328125,0.226531982421875,1.0655975341796875,0.762786865234375
1764585668079090000,3.84008984375,0.4796295166015625,1.2772064208984375,0.5176544189453125
1764585668089044000,3.8500439453125,0.9028167724609375,1.429534912109375,0.2723541259765625
1764585668098997800,3.859997802734375,0.262786865234375,1.433319091796875,0.126068115234375
1764585668108953000,3.869953125,0.1897430419921875,1.4552001953125,-0.1317138671875
1764585668118907000,3.879906982421875,0.108489990234375,1.4819488525390625,-0.2601165771484375
1764585668128861000,3.88986083984375,0.0726318359375,1.429046630859375,-0.28118896484375
1764585668138815000,3.89981494140625,0.02783203125,1.1752471923828125,0.0217132568359375
1764585668148769000,3.90976904296875,-0.0133209228515625,0.7977142333984375,0.312896728515625
1764585668158723800,3.919723876953125,-0.0181427001953125,0.66790771484375,0.2782135009765625
1764585668168678000,3.929677978515625,0.017730712890625,0.66357421875,0.233978271484375
1764585668178632000,3.9396318359375,0.085601806640625,0.7346649169921875,0.169219970703125
1764585668188586000,3.9495859375,0.0978851318359375,0.79083251953125,0.139617919921875
1764585668198540000,3.9595400390625,0.1130218505859375,0.8082122802734375,0.106842041015625
1764585668208494800,3.969494873046875,0.136962890625,0.9586029052734375,0.0374298095703125
1764585668218449000,3.979448974609375,0.1233062744140625,1.02886962890625,-0.002593994140625
1764585668228403000,3.98940283203125,0.1294708251953125,1.0939483642578125,0.08502197265625
1764585668238356700,3.999356689453125,0.1202239990234375,1.1964569091796875,0.045379638671875
1764585668248311000,4.00931103515625,0.1339263916015625,1.225128173828125,-0.1005401611328125
1764585668258265000,4.01926513671875,0.13653564453125,1.1838836669921875,-0.1586761474609375
1764585668268220000,4.029219970703125,0.1309051513671875,1.1159210205078125,-0.17205810546875
1764585668278174000,4.039174072265625,0.13006591796875,1.0803985595703125,-0.1983489990234375
1764585668288128000,4.0491279296875,0.1184234619140625,1.069549560546875,-0.2384490966796875
1764585668298081800,4.059081787109375,0.0850982666015625,1.041107177734375,-0.269439697265625
1764585668308035800,4.069035888671875,0.057373046875,1.0265350341796875,-0.2646026611328125
1764585668317991000,4.078990966796875,0.0521087646484375,1.0120086669921875,-0.21728515625
1764585668327945000,4.088945068359375,0.1048583984375,0.9899139404296875,-0.18707275390625
1764585668337899000,4.09889892578125,0.1811981201171875,0.958282470703125,-0.17279052734375
1764585668347853000,4.10885302734375,0.2836761474609375,0.922149658203125,-0.1447906494140625
1764585668357806800,4.118806884765625,0.3569488525390625,0.891876220703125,-0.0873565673828125
1764585668367762000,4.128761962890625,0.356170654296875,0.8430023193359375,-0.013702392578125
1764585668377715700,4.1387158203125,0.342132568359375,0.787384033203125,0.1027069091796875
1764585668387670000,4.148669921875,0.314178466796875,0.8509063720703125,0.1584014892578125
1764585668397624000,4.1586240234375,0.2294464111328125,0.9485015869140625,0.1067047119140625
1764585668407578000,4.168578125,0.1287689208984375,0.9816436767578125,0.0285797119140625
1764585668417533000,4.178532958984375,0.1212310791015625,0.9444427490234375,-0.025970458984375
1764585668427487000,4.188487060546875,0.08892822265625,0.864288330078125,-0.0843048095703125
1764585668437440800,4.198440673828125,0.101043701171875,0.78607177734375,-0.179473876953125
1764585668447394800,4.208394775390625,0.127532958984375,0.7703094482421875,-0.188446044921875
1764585668457348900,4.218348876953125,0.15948486328125,0.8619232177734375,-0.2176513671875
1764585668467304000,4.228303955078125,0.201416015625,1.0192718505859375,-0.2774505615234375
1764585668477258000,4.238258056640625,0.22607421875,1.0306243896484375,-0.2853546142578125
1764585668487212000,4.2482119140625,0.1878814697265625,1.0301666259765625,-0.280670166015625
1764585668497165800,4.258165771484375,0.274871826171875,1.098907470703125,-0.34686279296875
1764585668507119900,4.268119873046875,0.3177642822265625,1.05194091796875,-0.3305816650390625
1764585668517075000,4.278074951171875,0.285888671875,1.03009033203125,-0.267364501953125
1764585668527029000,4.288029052734375,0.2546234130859375,1.0835418701171875,-0.3217620849609375
1764585668536983000,4.297983154296875,0.1961822509765625,1.142822265625,-0.4344940185546875
1764585668546937000,4.30793701171875,0.0978240966796875,1.07275390625,-0.463470458984375
1764585668556891000,4.317890869140625,-0.0336151123046875,0.9251556396484375,-0.531402587890625
1764585668566846000,4.327845947265625,-0.06597900390625,0.8859710693359375,-0.5399017333984375
1764585668576799700,4.3377998046875,-0.062530517578125,0.8787994384765625,-0.506103515625
1764585668586753800,4.34775390625,-0.09375,0.8407135009765625,-0.4905548095703125
1764585668596707800,4.357707763671875,-0.1383514404296875,0.837982177734375,-0.48394775390625
1764585668606662100,4.367662109375,-0.1276397705078125,0.943359375,-0.4715118408203125
1764585668616617000,4.377616943359375,-0.087921142578125,1.0412445068359375,-0.40576171875
1764585668626571000,4.387571044921875,-0.0279998779296875,1.0449981689453125,-0.325408935546875
1764585668636524800,4.39752490234375,0.114166259765625,1.0201568603515625,-0.2386474609375
1764585668646478800,4.407478759765625,0.2893218994140625,0.9571075439453125,-0.1501312255859375
1764585668656433000,4.417432861328125,0.462310791015625,0.899505615234375,-0.0488128662109375
1764585668666388000,4.427387939453125,0.6294403076171875,0.917510986328125,0.03094482421875
1764585668676342000,4.437342041015625,0.697723388671875,0.986785888671875,0.027069091796875
1764585668686296000,4.447296142578125,0.649688720703125,1.0061187744140625,0.0414886474609375
1764585668696249900,4.457249755859375,0.563446044921875,0.9024658203125,0.1293182373046875
1764585668706204000,4.467203857421875,0.3844451904296875,0.732208251953125,0.1730194091796875
1764585668716159000,4.477158935546875,0.29840087890625,0.9385986328125,0.0081024169921875
1764585668726112800,4.48711279296875,0.097991943359375,1.091522216796875,-0.1916046142578125
1764585668736066800,4.49706689453125,0.0146331787109375,0.9995269775390625,-0.1509552001953125
1764585668746021000,4.507021240234375,-0.02783203125,1.0742645263671875,-0.188812255859375
1764585668755975000,4.516974853515625,-0.0966339111328125,1.1639251708984375,-0.27764892578125
1764585668765930000,4.526929931640625,-0.1000823974609375,1.0574951171875,-0.18023681640625
1764585668775884000,4.536884033203125,-0.076690673828125,0.9080047607421875,-0.087677001953125
1764585668785837800,4.546837890625,-0.0633087158203125,0.88323974609375,-0.06756591796875
1764585668795792000,4.5567919921875,-0.0318450927734375,0.997283935546875,-0.1049652099609375
1764585668805746000,4.566745849609375,0.0319671630859375,1.0840606689453125,-0.1253662109375
1764585668815701000,4.576700927734375,0.068389892578125,1.02044677734375,-0.101165771484375
1764585668825655000,4.586655029296875,0.115081787109375,1.0788726806640625,-0.1563873291015625
1764585668835608800,4.59660888671875,0.116851806640625,1.09185791015625,-0.1683502197265625
1764585668845563000,4.60656298828125,0.1233673095703125,1.0028076171875,-0.0947265625
1764585668855518000,4.61651806640625,0.1518707275390625,0.9633636474609375,-0.0843505859375
1764585668865471700,4.6264716796875,0.1694488525390625,0.9396820068359375,-0.06329345703125
1764585668875425800,4.63642578125,0.1650543212890625,0.929229736328125,-0.0572052001953125
1764585668885380000,4.646380126953125,0.1373138427734375,0.9326934814453125,-0.057769775390625
1764585668895334000,4.656333984375,0.1123199462890625,0.9459991455078125,-0.0574951171875
1764585668905289000,4.6662890625,0.1077728271484375,0.96014404296875,-0.0507049560546875
1764585668915243000,4.676242919921875,0.1088409423828125,0.9557342529296875,-0.035675048828125
1764585668925196800,4.68619677734375,0.112945556640625,0.9509124755859375,-0.0220794677734375
1764585668935150800,4.69615087890625,0.1151123046875,0.937042236328125,0.00177001953125
1764585668945105000,4.70610498046875,0.0496673583984375,0.936859130859375,0.0448455810546875
1764585668955060000,4.71606005859375,-0.1560211181640625,0.975128173828125,-0.0448150634765625
1764585668965014000,4.726013916015625,-0.35504150390625,1.0076141357421875,-0.1160888671875
1764585668974968000,4.735968017578125,-0.289642333984375,1.019439697265625,-0.0875091552734375
1764585668984921900,4.745921875,0.0094757080078125,1.0186767578125,-0.078125
1764585668994876000,4.7558759765625,0.17108154296875,1.0472412109375,-0.084991455078125
1764585669004830700,4.765830810546875,0.2523040771484375,1.084197998046875,-0.07501220703125
1764585669014784800,4.77578466796875,0.2508087158203125,1.0981292724609375,-0.0847930908203125
1764585669024739000,4.785739013671875,0.2624359130859375,1.0980224609375,-0.044708251953125
1764585669034693000,4.795693115234375,0.2390594482421875,1.082427978515625,-0.0639190673828125
1764585669044647000,4.80564697265625,0.210662841796875,1.0545196533203125,-0.0804290771484375
1764585669054602000,4.81560205078125,0.1783294677734375,1.0337066650390625,-0.0942840576171875
1764585669064555800,4.8255556640625,0.1102142333984375,1.0199127197265625,-0.122344970703125
1764585669074509800,4.835509765625,0.048736572265625,1.03778076171875,-0.15020751953125
1764585669084463900,4.8454638671875,0.0224456787109375,1.0517120361328125,-0.1337890625
1764585669094419000,4.8554189453125,-0.0264129638671875,1.04608154296875,-0.129608154296875
1764585669104373000,4.865373046875,-0.0936431884765625,1.022857666015625,-0.1099700927734375
1764585669114327000,4.8753271484375,-0.1164398193359375,1.003173828125,-0.1193695068359375
1764585669124280800,4.88528076171875,-0.1124420166015625,0.9957733154296875,-0.11834716796875
1764585669134235000,4.89523486328125,-0.09088134765625,0.989715576171875,-0.1255645751953125
1764585669144190000,4.90518994140625,-0.0702362060546875,1.0009918212890625,-0.1339111328125
1764585669154143700,4.915143798828125,-0.0572509765625,1.0193328857421875,-0.1501007080078125
1764585669164098000,4.92509814453125,-0.0301055908203125,1.037261962890625,-0.1334075927734375
1764585669174052000,4.935052001953125,0.008270263671875,1.0477752685546875,-0.13885498046875
1764585669184006000,4.945005859375,0.02288818359375,1.0737457275390625,-0.149169921875
1764585669193961000,4.9549609375,0.0674896240234375,1.091949462890625,-0.11029052734375
1764585669203915000,4.9649150390625,0.1002349853515625,1.1150054931640625,-0.0958099365234375
1764585669213868800,4.974868896484375,0.157012939453125,1.0662384033203125,-0.0356903076171875
1764585669223822800,4.98482275390625,0.113739013671875,1.04791259765625,-0.076812744140625
1764585669233778000,4.99477783203125,0.045806884765625,1.0501708984375,-0.040008544921875
1764585669243732000,5.00473193359375,0.028411865234375,1.04962158203125,-0.0087738037109375
1764585669253686000,5.01468603515625,0.0288543701171875,1.0531463623046875,0.00860595703125
1764585669263639800,5.024639892578125,0.0436553955078125,0.986785888671875,0.044830322265625
1764585669273593900,5.03459375,0.0321807861328125,0.9579315185546875,0.052734375
1764585669283549000,5.044548828125,0.0191497802734375,0.80572509765625,0.06854248046875
1764585669293502700,5.054502685546875,0.036407470703125,0.7014312744140625,0.0151824951171875
1764585669303457000,5.06445703125,0.024932861328125,0.70123291015625,-0.0648040771484375
1764585669313411000,5.0744111328125,-0.010772705078125,0.8725433349609375,-0.2053070068359375
1764585669323366000,5.084365966796875,0.0088958740234375,0.9326629638671875,-0.2012939453125
1764585669333320000,5.09431982421875,0.0190277099609375,0.94378662109375,-0.2237091064453125
1764585669343274000,5.10427392578125,0.020965576171875,0.9976806640625,-0.2342376708984375
1764585669353227800,5.114227783203125,0.0250396728515625,0.9803466796875,-0.23187255859375
1764585669363181800,5.124181884765625,0.0345916748046875,0.8876190185546875,-0.2081146240234375
1764585669373137000,5.134136962890625,0.057159423828125,0.84735107421875,-0.1881866455078125
1764585669383091000,5.144091064453125,0.068023681640625,0.806671142578125,-0.169647216796875
1764585669393045000,5.154044921875,0.069580078125,0.8631744384765625,-0.1831817626953125
1764585669402999000,5.1639990234375,0.050079345703125,0.8671722412109375,-0.17291259765625
1764585669412952800,5.173952880859375,0.0235595703125,0.9698944091796875,-0.22467041015625
1764585669422908000,5.183907958984375,-0.0236053466796875,1.0442657470703125,-0.238555908203125
1764585669432862000,5.193862060546875,-0.05035400390625,1.075897216796875,-0.245452880859375
1764585669442816000,5.20381591796875,-0.0707244873046875,1.1038818359375,-0.256072998046875
1764585669452770000,5.21377001953125,-0.084381103515625,1.15283203125,-0.2610321044921875
1764585669462724900,5.223724853515625,-0.05780029296875,1.1177825927734375,-0.2357330322265625
1764585669472679000,5.233678955078125,0.0023651123046875,1.0098419189453125,-0.17742919921875
1764585669482633000,5.243633056640625,0.0465240478515625,0.949615478515625,-0.1341705322265625
1764585669492586800,5.253586669921875,0.06231689453125,0.8421173095703125,-0.0561370849609375
1764585669502540800,5.263540771484375,0.1071929931640625,0.83392333984375,-0.11627197265625
1764585669512495900,5.273495849609375,0.018035888671875,1.1986236572265625,-0.252593994140625
1764585669522450000,5.283449951171875,0.009490966796875,1.338226318359375,-0.2992095947265625
1764585669532404000,5.293404052734375,0.1182861328125,0.9585418701171875,-0.1382598876953125
1764585669542358000,5.30335791015625,0.187103271484375,0.8448486328125,-0.085296630859375
1764585669552312800,5.313312744140625,0.161895751953125,0.9120330810546875,-0.0947113037109375
1764585669562267000,5.323266845703125,0.1462249755859375,0.976531982421875,-0.1771087646484375
1764585669572221000,5.333220947265625,0.1265716552734375,0.7169189453125,-0.123291015625
1764585669582175000,5.343175048828125,0.0743865966796875,0.99969482421875,-0.27886962890625
1764585669592129000,5.35312890625,-0.015380859375,1.3130340576171875,-0.3800506591796875
1764585669602083800,5.363083740234375,0.0006256103515625,0.7789764404296875,-0.20452880859375
1764585669612038000,5.373037841796875,0.1093292236328125,0.5367431640625,-0.0677490234375
1764585669621992000,5.382991943359375,0.1210174560546875,0.662078857421875,-0.091522216796875
1764585669631945700,5.39294580078125,0.1141357421875,0.7069244384765625,-0.0828857421875
1764585669641901000,5.402901123046875,0.1159820556640625,0.709564208984375,-0.06915283203125
1764585669651855000,5.412855224609375,0.1217498779296875,0.7086334228515625,-0.0524444580078125
1764585669661809000,5.422808837890625,0.1220245361328125,0.7386627197265625,-0.058135986328125
1764585669671763000,5.432762939453125,0.1202850341796875,0.8194732666015625,-0.09393310546875
1764585669681717000,5.442717041015625,0.1182403564453125,0.9119415283203125,-0.121246337890625
1764585669691671800,5.452671875,0.11126708984375,0.960479736328125,-0.1473388671875
1764585669701625900,5.4626259765625,0.09832763671875,0.9991607666015625,-0.1868133544921875
1764585669711580200,5.472580078125,0.0699462890625,1.0918121337890625,-0.2334136962890625
1764585669721534000,5.482533935546875,0.0078582763671875,1.2028961181640625,-0.272674560546875
1764585669731489000,5.492489013671875,-0.062225341796875,1.267822265625,-0.272430419921875
1764585669741442800,5.50244287109375,-0.0934906005859375,1.247802734375,-0.2629241943359375
1764585669751396900,5.51239697265625,-0.0346832275390625,1.182525634765625,-0.2141265869140625
1764585669761351000,5.522350830078125,0.0803680419921875,1.0952606201171875,-0.1480560302734375
1764585669771305000,5.532304931640625,0.1629180908203125,1.0293426513671875,-0.1045989990234375
1764585669781259500,5.542259521484375,0.206024169921875,1.008880615234375,-0.08447265625
1764585669791213600,5.552213623046875,0.19384765625,1.01080322265625,-0.0804595947265625
1764585669801167600,5.562167724609375,0.16436767578125,1.0156097412109375,-0.080902099609375
1764585669811121700,5.57212158203125,0.1361541748046875,1.013702392578125,-0.0818634033203125
1764585669821075700,5.58207568359375,0.113006591796875,1.0120391845703125,-0.078216552734375
1764585669831030500,5.592030517578125,0.0937652587890625,1.0215301513671875,-0.0831451416015625
1764585669840984600,5.601984619140625,0.0836944580078125,1.0204620361328125,-0.08013916015625
1764585669850938600,5.611938720703125,0.081298828125,1.0251922607421875,-0.07733154296875
1764585669860892400,5.621892333984375,0.083404541015625,1.02703857421875,-0.068359375
1764585669870847700,5.63184765625,0.08428955078125,1.0356292724609375,-0.0646209716796875
1764585669880801800,5.6418017578125,0.0801239013671875,1.0499420166015625,-0.0595703125
1764585669890755600,5.651755615234375,0.08294677734375,1.0323944091796875,-0.045257568359375
1764585669900709600,5.661709716796875,0.1065673828125,1.0079345703125,-0.01556396484375
1764585669910663700,5.67166357421875,0.127105712890625,1.0339508056640625,0.004302978515625
1764585669920618500,5.681618408203125,0.11871337890625,1.0590362548828125,0.0191192626953125
1764585669930572500,5.691572509765625,0.100982666015625,1.0604095458984375,0.0254669189453125
1764585669940526600,5.701526611328125,0.0856475830078125,1.0608367919921875,0.03167724609375
1764585669950480600,5.711480712890625,0.070068359375,1.0687103271484375,0.0269927978515625
1764585669960435700,5.721435791015625,0.043792724609375,1.05609130859375,0.0184326171875
1764585669970389500,5.731389404296875,0.01806640625,1.039306640625,-0.007965087890625
1764585669980343600,5.741343505859375,-0.0055389404296875,1.014404296875,-0.04864501953125
1764585669990297600,5.751297607421875,-0.0093231201171875,0.9990692138671875,-0.0872955322265625
1764585670000251600,5.761251708984375,0.005035400390625,0.9826202392578125,-0.1244049072265625
1764585670010206700,5.771206787109375,0.0266571044921875,0.9555206298828125,-0.1590118408203125
1764585670020160800,5.781160888671875,0.051849365234375,0.938934326171875,-0.1489105224609375
1764585670030114600,5.791114501953125,0.0712127685546875,0.9192352294921875,-0.1223297119140625
1764585670040068600,5.801068603515625,0.0878448486328125,0.9044647216796875,-0.098419189453125
1764585670050023700,5.811023681640625,0.097991943359375,0.901702880859375,-0.0764923095703125
1764585670059977500,5.8209775390625,0.108154296875,0.9234161376953125,-0.05889892578125
1764585670069931500,5.830931640625,0.1172027587890625,0.971221923828125,-0.04681396484375
1764585670079885600,5.840885498046875,0.115966796875,0.99847412109375,-0.0352630615234375
1764585670089839600,5.850839599609375,0.108795166015625,0.99139404296875,-0.0248260498046875
1764585670099794700,5.860794677734375,0.109100341796875,0.9884796142578125,-0.0267181396484375
1764585670109748500,5.87074853515625,0.110076904296875,1.014129638671875,-0.0377655029296875
1764585670119702500,5.88070263671875,0.107940673828125,1.0262298583984375,-0.0439910888671875
1764585670129656600,5.890656494140625,0.102447509765625,1.016693115234375,-0.0365142822265625
1764585670139611400,5.900611328125,0.09576416015625,1.019134521484375,-0.0304412841796875
1764585670149565700,5.910565673828125,0.0851287841796875,1.03790283203125,-0.0254058837890625
1764585670159519700,5.920519775390625,0.0730133056640625,1.0507354736328125,-0.0182647705078125
1764585670169473500,5.9304736328125,0.065826416015625,1.0560455322265625,-0.017547607421875
1764585670179427600,5.940427490234375,0.06781005859375,1.058197021484375,-0.0213775634765625
1764585670189382700,5.950382568359375,0.0729827880859375,1.07330322265625,-0.02655029296875
1764585670199336400,5.96033642578125,0.0723114013671875,1.08331298828125,-0.028533935546875
1764585670209290500,5.97029052734375,0.0683441162109375,1.081512451171875,-0.032928466796875
1764585670219244500,5.98024462890625,0.05987548828125,1.07904052734375,-0.0366058349609375
1764585670229199600,5.99019970703125,0.0471038818359375,1.072052001953125,-0.038177490234375
1764585670239153700,6.000153564453125,0.0346832275390625,1.0688018798828125,-0.0410003662109375
1764585670249107700,6.010107666015625,0.02001953125,1.071502685546875,-0.046173095703125
1764585670259061500,6.0200615234375,0.006072998046875,1.076141357421875,-0.0473175048828125
1764585670269015600,6.030015625,-0.00750732421875,1.0772552490234375,-0.0515594482421875
1764585670278970400,6.039970458984375,-0.023651123046875,1.068267822265625,-0.04937744140625
1764585670288924700,6.049924560546875,-0.034393310546875,1.036285400390625,-0.0469512939453125
1764585670298878700,6.059878662109375,-0.036346435546875,1.012603759765625,-0.049041748046875
1764585670308832800,6.069832763671875,-0.0358734130859375,1.00848388671875,-0.0513916015625
1764585670318787600,6.07978759765625,-0.0348358154296875,0.9933624267578125,-0.0496673583984375
1764585670328741600,6.08974169921875,-0.0340423583984375,0.988128662109375,-0.051910400390625
1764585670338695400,6.0996953125,-0.030181884765625,1.0016326904296875,-0.0567474365234375
1764585670348649500,6.1096494140625,-0.023406982421875,0.99688720703125,-0.0572509765625
1764585670358603500,6.119603515625,-0.0132904052734375,0.966033935546875,-0.0543670654296875
1764585670368558600,6.12955859375,-0.00140380859375,0.9292449951171875,-0.046905517578125
1764585670378512600,6.1395126953125,0.00701904296875,0.896575927734375,-0.032806396484375
1764585670388466700,6.149466796875,0.0194244384765625,0.8722381591796875,-0.018890380859375
1764585670398420500,6.15942041015625,0.030059814453125,0.8559722900390625,-0.013153076171875
1764585670408375600,6.16937548828125,0.0389556884765625,0.855712890625,-0.0095367431640625
1764585670418329600,6.17932958984375,0.04742431640625,0.8772125244140625,-0.0074005126953125
1764585670428283600,6.18928369140625,0.0566253662109375,0.8904266357421875,-0.0121307373046875
1764585670438237700,6.19923779296875,0.0652008056640625,0.881500244140625,-0.021240234375
1764585670448191700,6.209191650390625,0.069244384765625,0.87030029296875,-0.024505615234375
1764585670458146600,6.219146484375,0.06817626953125,0.8466339111328125,-0.0140533447265625
1764585670468100600,6.2291005859375,0.0679473876953125,0.827117919921875,0.0076446533203125
1764585670478054400,6.239054443359375,0.0694580078125,0.8267364501953125,0.02593994140625
1764585670488008400,6.249008544921875,0.0708465576171875,0.83331298828125,0.0437469482421875
1764585670497963800,6.2589638671875,0.076171875,0.8448333740234375,0.0556488037109375
1764585670507917600,6.26891748046875,0.0842132568359375,0.87542724609375,0.0631561279296875
1764585670517871600,6.27887158203125,0.0908966064453125,0.9173583984375,0.0670623779296875
1764585670527825700,6.28882568359375,0.10003662109375,0.949920654296875,0.0614166259765625
1764585670537779500,6.298779541015625,0.1119842529296875,0.9687042236328125,0.047607421875
1764585670547734500,6.308734619140625,0.1259002685546875,1.0025482177734375,0.0199737548828125
1764585670557688600,6.3186884765625,0.130645751953125,1.0576019287109375,-0.003082275390625
1764585670567642600,6.328642578125,0.1240234375,1.109283447265625,-0.012054443359375
1764585670577596700,6.3385966796875,0.1107635498046875,1.1411285400390625,-0.0140533447265625
1764585670587551500,6.348551513671875,0.089141845703125,1.1511383056640625,-0.01373291015625
1764585670597505500,6.358505615234375,0.0597991943359375,1.1416015625,-0.011627197265625
1764585670607459600,6.36845947265625,0.035675048828125,1.122406005859375,-0.0115509033203125
1764585670617413600,6.37841357421875,0.01416015625,1.089019775390625,-0.010467529296875
1764585670627367400,6.388367431640625,-0.0078125,1.056121826171875,-0.0120086669921875
1764585670637322800,6.39832275390625,-0.0224151611328125,1.0134124755859375,-0.0090179443359375
1764585670647276500,6.408276611328125,-0.02716064453125,0.9641571044921875,-0.00531005859375
1764585670657230600,6.418230712890625,-0.029052734375,0.92315673828125,0.00146484375
1764585670667184600,6.4281845703125,-0.022735595703125,0.9016265869140625,0.0074920654296875
1764585670677139500,6.438139404296875,-0.0186004638671875,0.8841400146484375,0.00238037109375
1764585670687093500,6.448093505859375,-0.0164031982421875,0.8701324462890625,-0.0105438232421875
1764585670697047800,6.4580478515625,-0.006988525390625,0.8641357421875,-0.02874755859375
1764585670707001600,6.468001708984375,0.0118560791015625,0.86956787109375,-0.0434417724609375
1764585670716955600,6.47795556640625,0.034912109375,0.8898773193359375,-0.0431976318359375
1764585670726910500,6.487910400390625,0.05535888671875,0.90521240234375,-0.036468505859375
1764585670736864500,6.497864501953125,0.069000244140625,0.9022216796875,-0.0303192138671875
1764585670746818600,6.507818603515625,0.0806121826171875,0.9077301025390625,-0.02825927734375
1764585670756772600,6.517772705078125,0.0830841064453125,0.9480133056640625,-0.023162841796875
1764585670766727700,6.527727783203125,0.0802764892578125,0.9919281005859375,-0.016204833984375
1764585670776681700,6.537681640625,0.0772552490234375,1.026641845703125,-0.0098724365234375
1764585670786635500,6.547635498046875,0.0752716064453125,1.0668792724609375,-0.0122528076171875
1764585670796589600,6.557589599609375,0.0652618408203125,1.113433837890625,-0.016632080078125
1764585670806543600,6.567543701171875,0.0529632568359375,1.1574554443359375,-0.018402099609375
1764585670816498700,6.577498779296875,0.0444183349609375,1.181915283203125,-0.018157958984375
1764585670826452700,6.58745263671875,0.038848876953125,1.1848602294921875,-0.0204010009765625
1764585670836406800,6.59740673828125,0.0343170166015625,1.1630859375,-0.0124359130859375
1764585670846360600,6.607360595703125,0.0359649658203125,1.121307373046875,-0.000823974609375
1764585670856314600,6.617314697265625,0.0387420654296875,1.08502197265625,0.0067291259765625
1764585670866269700,6.627269775390625,0.0434112548828125,1.053131103515625,0.0165557861328125
1764585670876223500,6.637223388671875,0.0475006103515625,1.0139007568359375,0.0181121826171875
1764585670886177800,6.647177734375,0.041290283203125,0.9977874755859375,0.01422119140625
1764585670896131800,6.6571318359375,0.034942626953125,0.9790802001953125,0.005279541015625
1764585670906086700,6.667086669921875,0.0340728759765625,0.9662017822265625,-0.0079803466796875
1764585670916040700,6.677040771484375,0.0364990234375,0.967071533203125,-0.0137939453125
1764585670925994800,6.686994873046875,0.0389556884765625,0.9507293701171875,-0.020751953125
1764585670935948500,6.696948486328125,0.0370941162109375,0.94232177734375,-0.0312347412109375
1764585670945903900,6.70690380859375,0.0319061279296875,0.9528961181640625,-0.0386505126953125
1764585670955857700,6.716857666015625,0.0292816162109375,0.975433349609375,-0.04400634765625
1764585670965811700,6.726811767578125,0.0276336669921875,1.021484375,-0.0419464111328125
1764585670975765800,6.736765869140625,0.029205322265625,1.0604248046875,-0.0346832275390625
1764585670985719800,6.7467197265625,0.032073974609375,1.0841064453125,-0.0197601318359375
1764585670995674600,6.756674560546875,0.0349884033203125,1.10296630859375,0.0019683837890625
1764585671005628700,6.766628662109375,0.044219970703125,1.1096343994140625,0.023956298828125
1764585671015582500,6.77658251953125,0.055267333984375,1.10546875,0.043182373046875
1764585671025536800,6.786536865234375,0.0641937255859375,1.09271240234375,0.059906005859375
1764585671035491600,6.79649169921875,0.076446533203125,1.0548553466796875,0.0706024169921875
1764585671045445600,6.806445556640625,0.0899505615234375,0.990386962890625,0.0745697021484375
1764585671055399700,6.816399658203125,0.095306396484375,0.9404296875,0.0810394287109375
1764585671065353700,6.826353759765625,0.098907470703125,0.9038238525390625,0.085205078125
1764585671075307500,6.8363076171875,0.1064300537109375,0.8647918701171875,0.081024169921875
1764585671085262800,6.846262939453125,0.114166259765625,0.8397979736328125,0.07244873046875
1764585671095216600,6.856216552734375,0.120635986328125,0.827728271484375,0.0609893798828125
1764585671105170700,6.866170654296875,0.125396728515625,0.81890869140625,0.0529327392578125
1764585671115124700,6.876124755859375,0.12908935546875,0.809967041015625,0.0374908447265625
1764585671125079600,6.88607958984375,0.1315155029296875,0.8025054931640625,0.01953125
1764585671135033600,6.89603369140625,0.1180419921875,0.7970733642578125,0.0214996337890625
1764585671144987600,6.905987548828125,0.094085693359375,0.7981109619140625,0.0321044921875
1764585671154941400,6.91594140625,0.0741119384765625,0.83172607421875,0.0293121337890625
1764585671164895700,6.925895751953125,0.0643157958984375,0.932373046875,0.01971435546875
1764585671174850800,6.935850830078125,0.0611724853515625,1.029022216796875,0.010284423828125
1764585671184804600,6.9458046875,0.0630950927734375,1.0764923095703125,0.0006256103515625
1764585671194758700,6.955758544921875,0.06500244140625,1.113525390625,-0.0034027099609375
1764585671204712700,6.965712646484375,0.0777587890625,1.1588592529296875,-0.007415771484375
1764585671214667500,6.97566748046875,0.0918426513671875,1.188629150390625,-0.0052490234375
1764585671224621800,6.985621826171875,0.1046142578125,1.1980133056640625,-0.000457763671875
1764585671234576000,6.995575927734375,0.1164703369140625,1.1942291259765625,0.003692626953125
1764585671244529700,7.00552978515625,0.1147918701171875,1.179901123046875,0.00738525390625
1764585671254483700,7.015483642578125,0.0956573486328125,1.1547088623046875,0.0056915283203125
1764585671264438500,7.0254384765625,0.0615234375,1.118377685546875,0.0105133056640625
1764585671274392600,7.035392578125,0.0256195068359375,1.085723876953125,0.0081939697265625
1764585671284346600,7.0453466796875,-0.0073089599609375,1.060302734375,0.0121917724609375
1764585671294300700,7.05530078125,-0.0330657958984375,1.0208740234375,0.02801513671875
1764585671304255700,7.065255859375,-0.0451202392578125,0.9933929443359375,0.041259765625
1764585671314209800,7.075209716796875,-0.048736572265625,0.9617919921875,0.05169677734375
1764585671324163600,7.08516357421875,-0.0467987060546875,0.925506591796875,0.05352783203125
1764585671334117600,7.09511767578125,-0.04693603515625,0.9042510986328125,0.04669189453125
1764585671344071700,7.10507177734375,-0.049468994140625,0.8834381103515625,0.0399322509765625
1764585671354026800,7.11502685546875,-0.044647216796875,0.8980712890625,0.0243072509765625
1764585671363980800,7.124980712890625,-0.0328369140625,0.9180450439453125,0.0059356689453125
1764585671373934800,7.134934814453125,-0.00958251953125,0.925262451171875,-0.007537841796875
1764585671383888600,7.144888671875,0.0279083251953125,0.9301605224609375,-0.0141143798828125
1764585671393843700,7.15484375,0.058868408203125,0.92816162109375,-0.0078887939453125
1764585671403797500,7.164797607421875,0.07757568359375,0.9382781982421875,0.0133209228515625
1764585671413751600,7.17475146484375,0.0862579345703125,0.9487152099609375,0.0272674560546875
1764585671423705600,7.18470556640625,0.0914459228515625,0.95025634765625,0.0362701416015625
1764585671433660000,7.194659912109375,0.0989227294921875,0.9684906005859375,0.0521240234375
1764585671443614700,7.20461474609375,0.1002655029296875,1.0240478515625,0.056884765625
1764585671453568800,7.21456884765625,0.0921630859375,1.092864990234375,0.0565032958984375
1764585671463522600,7.2245224609375,0.0818023681640625,1.111907958984375,0.062103271484375
1764585671473476600,7.2344765625,0.0634307861328125,1.0905303955078125,0.067626953125
1764585671483431700,7.244431640625,0.050933837890625,1.088348388671875,0.069000244140625
1764585671493385700,7.2543857421875,0.04315185546875,1.089324951171875,0.0659637451171875
1764585671503339800,7.26433984375,0.0353851318359375,1.083526611328125,0.0651702880859375
1764585671513293800,7.2742939453125,0.0299072265625,1.078521728515625,0.0627593994140625
1764585671523247600,7.28424755859375,0.0160675048828125,1.07269287109375,0.058502197265625
1764585671533202700,7.29420263671875,0.0017547607421875,1.062347412109375,0.0552978515625
1764585671543156700,7.30415673828125,-0.012237548828125,1.06463623046875,0.0560760498046875
1764585671553110500,7.314110595703125,-0.0254974365234375,1.0638885498046875,0.053375244140625
1764585671563064600,7.324064697265625,-0.0337982177734375,1.0447845458984375,0.0433807373046875
1764585671573019600,7.33401953125,-0.046142578125,1.02386474609375,0.02978515625
1764585671582973700,7.3439736328125,-0.0555419921875,1.013946533203125,0.0255584716796875
1764585671592927700,7.353927734375,-0.058929443359375,1.0216522216796875,0.01678466796875
1764585671602881800,7.3638818359375,-0.0641021728515625,1.030670166015625,0.015625
1764585671612836600,7.373836669921875,-0.072418212890625,1.0361785888671875,0.0180816650390625
1764585671622790700,7.383790771484375,-0.07916259765625,1.0382232666015625,0.0222625732421875
1764585671632744700,7.39374462890625,-0.0828094482421875,1.042633056640625,0.028961181640625
1764585671642698800,7.40369873046875,-0.08612060546875,1.0430755615234375,0.0327606201171875
1764585671652652800,7.41365283203125,-0.0949249267578125,1.0446624755859375,0.0348358154296875
1764585671662607600,7.423607666015625,-0.10345458984375,1.04937744140625,0.0424957275390625
1764585671672561700,7.433561767578125,-0.1008453369140625,1.0421295166015625,0.054931640625
1764585671682515700,7.443515625,-0.0850067138671875,1.0030670166015625,0.0715179443359375
1764585671692469500,7.453469482421875,-0.0612335205078125,0.933502197265625,0.0854949951171875
1764585671702423600,7.463423583984375,-0.0287628173828125,0.86737060546875,0.1040496826171875
1764585671712378600,7.473378662109375,0.00225830078125,0.837615966796875,0.1062469482421875
1764585671722332700,7.483332763671875,0.0166168212890625,0.863128662109375,0.101165771484375
1764585671732286700,7.49328662109375,0.025543212890625,0.9017181396484375,0.096832275390625
1764585671742240800,7.50324072265625,0.048095703125,0.8939971923828125,0.104644775390625
1764585671752195600,7.513195556640625,0.0708770751953125,0.8707122802734375,0.1007232666015625
1764585671762149600,7.523149658203125,0.0818023681640625,0.866241455078125,0.10565185546875
1764585671772103700,7.533103759765625,0.0776214599609375,0.907623291015625,0.1114501953125
1764585671782057000,7.543056884765625,0.0605926513671875,0.9687652587890625,0.1208953857421875
1764585671792011000,7.553010986328125,0.04937744140625,1.024932861328125,0.1160736083984375
1764585671801965800,7.5629658203125,0.03692626953125,1.0715484619140625,0.1170654296875
1764585671811920100,7.572920166015625,0.01800537109375,1.1139984130859375,0.11370849609375
1764585671821874200,7.582874267578125,0.0001678466796875,1.168121337890625,0.1090850830078125
1764585671831828200,7.592828125,-0.0206146240234375,1.2160186767578125,0.1081390380859375
1764585671841783000,7.602782958984375,-0.0395965576171875,1.23529052734375,0.1034698486328125
1764585671851737000,7.612737060546875,-0.0591278076171875,1.23193359375,0.101593017578125
1764585671861691000,7.62269091796875,-0.0747833251953125,1.21917724609375,0.1124420166015625
1764585671871645000,7.63264501953125,-0.0804595947265625,1.176727294921875,0.1209716796875
1764585671881600300,7.642600341796875,-0.09503173828125,1.0902099609375,0.120269775390625
1764585671891554000,7.652553955078125,-0.0985260009765625,0.9895477294921875,0.1278228759765625
1764585671901508000,7.662508056640625,-0.1036529541015625,0.9153594970703125,0.1419677734375
1764585671911462100,7.672462158203125,-0.111785888671875,0.900299072265625,0.16021728515625
1764585671921416000,7.682416015625,-0.1263885498046875,0.92449951171875,0.1604156494140625
1764585671931371000,7.69237109375,-0.1342620849609375,0.9527435302734375,0.1453704833984375
1764585671941325000,7.702324951171875,-0.1441650390625,0.9572296142578125,0.1172027587890625
1764585671951279000,7.712279052734375,-0.1480560302734375,0.9282073974609375,0.085723876953125
1764585671961233200,7.722233154296875,-0.1301727294921875,0.8918304443359375,0.0760498046875
1764585671971188000,7.73218798828125,-0.092559814453125,0.8743743896484375,0.082427978515625
1764585671981142000,7.74214208984375,-0.060272216796875,0.834686279296875,0.07965087890625
1764585671991096000,7.752095947265625,-0.04522705078125,0.7599639892578125,0.0612945556640625
1764585672001050000,7.762050048828125,-0.0261077880859375,0.706390380859375,0.033050537109375
1764585672011004000,7.77200390625,0.0087738037109375,0.7162017822265625,0.007232666015625
1764585672020959200,7.781959228515625,0.028167724609375,0.835662841796875,0.002655029296875
1764585672030913000,7.7919130859375,0.019622802734375,0.9807281494140625,0.010833740234375
1764585672040867000,7.8018671875,-0.01123046875,1.0864105224609375,0.0073699951171875
1764585672050821000,7.811821044921875,-0.0456695556640625,1.1168060302734375,-0.01934814453125
1764585672060776000,7.82177587890625,-0.060211181640625,1.1103363037109375,-0.0194549560546875
1764585672070730000,7.83172998046875,-0.0504302978515625,1.1250762939453125,-0.00140380859375
1764585672080684000,7.84168408203125,-0.0510406494140625,1.152008056640625,0.0369415283203125
1764585672090638000,7.85163818359375,-0.0615692138671875,1.1760101318359375,0.076080322265625
1764585672100592000,7.861592041015625,-0.0729522705078125,1.1751556396484375,0.1016082763671875
1764585672110547000,7.871546875,-0.080902099609375,1.1310577392578125,0.112396240234375
1764585672120501000,7.8815009765625,-0.09222412109375,1.079498291015625,0.11114501953125
1764585672130455000,7.891455078125,-0.1057586669921875,1.05181884765625,0.104034423828125
1764585672140409000,7.9014091796875,-0.1048431396484375,1.0416107177734375,0.088592529296875
1764585672150364200,7.9113642578125,-0.1008148193359375,1.0213775634765625,0.0635528564453125
1764585672160318200,7.921318115234375,-0.1007843017578125,1.0011138916015625,0.0435943603515625
1764585672170272000,7.93127197265625,-0.1009368896484375,0.9645233154296875,0.0260772705078125
1764585672180226000,7.94122607421875,-0.10345458984375,0.9202728271484375,0.010101318359375
1764585672190180000,7.95118017578125,-0.112640380859375,0.9004058837890625,0.0010833740234375
1764585672200135000,7.961135009765625,-0.122222900390625,0.9085693359375,-0.0026702880859375
1764585672210089000,7.9710888671875,-0.127349853515625,0.938201904296875,-0.0004425048828125
1764585672220043000,7.98104296875,-0.126922607421875,0.9550933837890625,0.00579833984375
1764585672229997000,7.9909970703125,-0.12060546875,0.9527130126953125,0.0160675048828125
1764585672239952100,8.0009521484375,-0.10894775390625,0.9549102783203125,0.0258331298828125
1764585672249906200,8.01090625,-0.111328125,0.956939697265625,0.0410614013671875
1764585672259860000,8.02085986328125,-0.125335693359375,0.9811553955078125,0.0596771240234375
1764585672269814000,8.03081396484375,-0.1363525390625,1.018402099609375,0.0810546875
1764585672279768000,8.04076806640625,-0.1381072998046875,1.0505828857421875,0.0958099365234375
1764585672289723100,8.05072314453125,-0.1433563232421875,1.0704803466796875,0.10333251953125
1764585672299677200,8.06067724609375,-0.1496124267578125,1.087890625,0.10772705078125
1764585672309631200,8.07063134765625,-0.1526336669921875,1.0999603271484375,0.1029052734375
1764585672319585000,8.0805849609375,-0.1608734130859375,1.1155548095703125,0.084442138671875
1764585672329540000,8.0905400390625,-0.174346923828125,1.1160125732421875,0.068878173828125
1764585672339494000,8.100493896484375,-0.1767120361328125,1.0963592529296875,0.0513458251953125
1764585672349448000,8.110447998046874,-0.1734619140625,1.06951904296875,0.0294647216796875
1764585672359402000,8.120402099609375,-0.163726806640625,1.0523223876953125,0.0181427001953125
1764585672369357000,8.130357177734375,-0.1558380126953125,1.0439453125,0.0251312255859375
1764585672379311000,8.14031103515625,-0.1479644775390625,1.040863037109375,0.03460693359375
1764585672389265200,8.15026513671875,-0.142974853515625,1.0377197265625,0.036468505859375
1764585672399219000,8.160218994140624,-0.146209716796875,1.0026702880859375,0.0408477783203125
1764585672409173000,8.170173095703126,-0.1340789794921875,0.9272308349609375,0.046844482421875
1764585672419128000,8.180128173828125,-0.11492919921875,0.8499298095703125,0.0500335693359375
1764585672429082000,8.19008203125,-0.105194091796875,0.83160400390625,0.0433349609375
1764585672439036200,8.2000361328125,-0.102386474609375,0.8875274658203125,0.028045654296875
1764585672448990200,8.209990234375,-0.095550537109375,0.931243896484375,0.00653076171875
1764585672458945000,8.219945068359374,-0.07061767578125,0.922943115234375,-0.0131378173828125
1764585672468899000,8.229899169921875,-0.0512237548828125,0.9042205810546875,-0.0335845947265625
1764585672478852900,8.239852783203125,-0.0516204833984375,0.9285430908203125,-0.0542144775390625
1764585672488807000,8.249806884765626,-0.0693359375,0.9969940185546875,-0.069427490234375
1764585672498761000,8.259760986328125,-0.0797271728515625,1.061431884765625,-0.0882415771484375
1764585672508716000,8.269716064453124,-0.0791778564453125,1.096221923828125,-0.0996246337890625
1764585672518670000,8.279670166015626,-0.0722503662109375,1.0982818603515625,-0.097503662109375
1764585672528624000,8.2896240234375,-0.0569000244140625,1.07086181640625,-0.078643798828125
1764585672538578000,8.299577880859376,-0.0498199462890625,1.0473175048828125,-0.0440673828125
1764585672548533000,8.309532958984375,-0.0470123291015625,1.027740478515625,-0.016632080078125
1764585672558487000,8.319487060546875,-0.0378265380859375,0.991729736328125,-0.002960205078125
1764585672568441000,8.329441162109376,-0.0236663818359375,0.9351043701171875,0.00482177734375
1764585672578395100,8.33939501953125,-0.0065155029296875,0.86822509765625,0.0073089599609375
1764585672588349200,8.34934912109375,0.0067901611328125,0.81060791015625,-0.001800537109375
1764585672598304000,8.359303955078126,0.009552001953125,0.781158447265625,-0.017181396484375
1764585672608258000,8.369258056640625,0.0058441162109375,0.78314208984375,-0.03924560546875
1764585672618212000,8.379212158203124,-0.0062713623046875,0.8390960693359375,-0.0577545166015625
1764585672628166000,8.389165771484375,-0.0180511474609375,0.9108428955078125,-0.0682373046875
1764585672638121200,8.399121337890625,-0.036285400390625,0.9609832763671875,-0.0803680419921875
1764585672648075000,8.409074951171876,-0.06524658203125,1.038330078125,-0.08905029296875
1764585672658029000,8.419029052734375,-0.093780517578125,1.0962677001953125,-0.0892181396484375
1764585672667983000,8.428983154296875,-0.1079864501953125,1.1113128662109375,-0.0789031982421875
1764585672677937200,8.438937255859376,-0.106689453125,1.09320068359375,-0.054290771484375
1764585672687892000,8.44889208984375,-0.0936126708984375,1.0701446533203125,-0.02471923828125
1764585672697846000,8.458845947265624,-0.087310791015625,1.068756103515625,0.0072021484375
1764585672707800000,8.468800048828125,-0.091278076171875,1.0906219482421875,0.034637451171875
1764585672717754000,8.478754150390625,-0.1018829345703125,1.11004638671875,0.0628814697265625
1764585672727709000,8.488708984375,-0.121978759765625,1.1199798583984375,0.0836181640625
1764585672737663000,8.4986630859375,-0.1457366943359375,1.1319580078125,0.0885467529296875
1764585672747617000,8.508616943359375,-0.1550750732421875,1.145660400390625,0.042205810546875
1764585672757571000,8.518571044921876,-0.1605224609375,1.14990234375,-0.0435333251953125
1764585672767526100,8.528526123046875,-0.163055419921875,1.1175537109375,-0.09185791015625
1764585672777480200,8.538480224609375,-0.1453094482421875,1.0639495849609375,-0.1265869140625
1764585672787434200,8.548434326171876,-0.123687744140625,0.9695587158203125,-0.1623992919921875
1764585672797388300,8.55838818359375,-0.0808868408203125,0.9120941162109375,-0.1743927001953125
1764585672807342300,8.56834228515625,-0.0355987548828125,0.8896484375,-0.1661224365234375
1764585672817297200,8.578297119140625,-0.0093231201171875,0.8662872314453125,-0.148712158203125
1764585672827251200,8.588251220703125,0.0055999755859375,0.8270721435546875,-0.1266937255859375
1764585672837205500,8.59820556640625,0.01641845703125,0.7931365966796875,-0.093505859375
1764585672847159300,8.6081591796875,0.012420654296875,0.7846832275390625,-0.0625762939453125
1764585672857114400,8.6181142578125,-0.011077880859375,0.804473876953125,-0.0323944091796875
1764585672867068400,8.628068359375,-0.0440673828125,0.845855712890625,-0.004852294921875
1764585672877022200,8.638022216796875,-0.0723419189453125,0.8856353759765625,0.0150909423828125
1764585672886976300,8.647976318359374,-0.09075927734375,0.9015350341796875,0.0278167724609375
1764585672896930300,8.657930419921875,-0.0990142822265625,0.9095306396484375,0.0351104736328125
1764585672906885400,8.667885498046875,-0.1027374267578125,0.9398956298828125,0.046844482421875
1764585672916839400,8.67783935546875,-0.1024322509765625,0.9874114990234375,0.061065673828125
1764585672926793200,8.687793212890625,-0.1060028076171875,1.033538818359375,0.072540283203125
1764585672936747300,8.697747314453125,-0.1084442138671875,1.0645904541015625,0.0733795166015625
1764585672946702300,8.707702392578126,-0.1072845458984375,1.0834197998046875,0.065582275390625
1764585672956656000,8.71765625,-0.105072021484375,1.11297607421875,0.056121826171875
1764585672966610200,8.727610107421874,-0.1041717529296875,1.1511383056640625,0.04022216796875
1764585672976564500,8.737564453125,-0.0980987548828125,1.1794281005859375,0.0251922607421875
1764585672986518300,8.747518310546875,-0.0854339599609375,1.1721649169921875,0.0142364501953125
1764585672996473300,8.757473388671874,-0.07000732421875,1.1338348388671875,0.00408935546875
1764585673006427400,8.767427490234375,-0.056640625,1.0962066650390625,0.0067291259765625
1764585673016381200,8.777381103515625,-0.0507049560546875,1.0621490478515625,0.005523681640625
1764585673026335200,8.787335205078126,-0.056396484375,1.02825927734375,-0.000640869140625
1764585673036290300,8.797290283203125,-0.0696258544921875,1.001373291015625,0.0025177001953125
1764585673046244400,8.807244384765625,-0.0650482177734375,0.968963623046875,0.0078125
1764585673056198400,8.817198486328126,-0.0531005859375,0.925384521484375,0.0039825439453125
1764585673066152400,8.82715234375,-0.0513153076171875,0.902191162109375,0.0074005126953125
1764585673076107300,8.837107177734374,-0.0512237548828125,0.896881103515625,0.0154266357421875
1764585673086061300,8.847061279296875,-0.0550537109375,0.9118804931640625,0.0196990966796875
1764585673096015000,8.85701513671875,-0.0561981201171875,0.9450531005859375,0.027801513671875
1764585673105969200,8.86696923828125,-0.061614990234375,0.9684600830078125,0.024658203125
1764585673115923500,8.87692333984375,-0.0693359375,0.9851226806640625,0.017852783203125
1764585673125878300,8.886878173828125,-0.074737548828125,1.0009307861328125,0.0102691650390625
1764585673135832300,8.896832275390626,-0.0778045654296875,1.0155181884765625,0.0068511962890625
1764585673145786400,8.906786376953125,-0.0787506103515625,1.0323638916015625,0.0104522705078125
1764585673155740200,8.916740234375,-0.0744476318359375,1.0506591796875,0.0178680419921875
1764585673165695200,8.9266953125,-0.0662994384765625,1.0635223388671875,0.0225830078125
1764585673175649300,8.936649169921875,-0.0527496337890625,1.0703582763671875,0.02471923828125
1764585673185603300,8.946603271484374,-0.0405426025390625,1.0712432861328125,0.0225830078125
1764585673195557400,8.956557373046875,-0.037567138671875,1.0561065673828125,0.030914306640625
1764585673205511400,8.966511474609375,-0.0321502685546875,1.0405731201171875,0.047210693359375
1764585673215466200,8.97646630859375,-0.030670166015625,1.0379486083984375,0.056671142578125
1764585673225420300,8.986420166015625,-0.0388031005859375,1.0294647216796875,0.058990478515625
1764585673235374300,8.996374267578124,-0.0493927001953125,1.0198822021484375,0.0615386962890625
1764585673245328100,9.006328125,-0.0606536865234375,1.0149078369140625,0.06298828125
1764585673255283500,9.016283447265625,-0.0727691650390625,1.0028228759765625,0.0567779541015625
1764585673265237200,9.0262373046875,-0.0819549560546875,0.9838104248046875,0.048797607421875
1764585673275191300,9.03619140625,-0.08685302734375,0.96368408203125,0.0468292236328125
1764585673285145300,9.046145263671875,-0.0853118896484375,0.9501800537109375,0.0403594970703125
1764585673295100200,9.05610009765625,-0.0811767578125,0.941436767578125,0.038970947265625
1764585673305054200,9.06605419921875,-0.0760955810546875,0.9284820556640625,0.03765869140625
1764585673315008500,9.076008544921875,-0.0700836181640625,0.9016571044921875,0.0265350341796875
1764585673324962300,9.08596240234375,-0.066375732421875,0.876708984375,0.0156707763671875
1764585673334916400,9.095916259765625,-0.0644073486328125,0.865997314453125,0.0091552734375
1764585673344871200,9.10587109375,-0.0556488037109375,0.8674468994140625,-0.0013885498046875
1764585673354825200,9.1158251953125,-0.0523681640625,0.88568115234375,-0.0115966796875
1764585673364779300,9.125779296875,-0.05499267578125,0.9424285888671875,-0.0142364501953125
1764585673374733300,9.1357333984375,-0.054473876953125,0.9907684326171875,-0.017059326171875
1764585673384688400,9.1456884765625,-0.0528411865234375,1.02996826171875,-0.0200347900390625
1764585673394642400,9.155642333984375,-0.056488037109375,1.0475006103515625,-0.0215911865234375
1764585673404596200,9.16559619140625,-0.056976318359375,1.0348358154296875,-0.0225830078125
1764585673414550300,9.17555029296875,-0.0561981201171875,1.0133209228515625,-0.03021240234375
1764585673424504300,9.18550439453125,-0.048614501953125,1.003265380859375,-0.0413818359375
1764585673434459100,9.195459228515626,-0.0436248779296875,0.9947052001953125,-0.057342529296875
1764585673444413200,9.2054130859375,-0.0422515869140625,0.9849090576171875,-0.065093994140625
1764585673454367500,9.215367431640624,-0.0375213623046875,0.9831695556640625,-0.0644378662109375
1764585673464321300,9.2253212890625,-0.03009033203125,0.9895782470703125,-0.0634613037109375
1764585673474276400,9.2352763671875,-0.0287933349609375,1.0022735595703125,-0.0579986572265625
1764585673484230400,9.24523046875,-0.0235137939453125,1.0225982666015625,-0.0560150146484375
1764585673494184200,9.25518408203125,-0.01806640625,1.0301055908203125,-0.0552520751953125
1764585673504138200,9.26513818359375,-0.017578125,1.0323944091796875,-0.0419921875
1764585673514092300,9.27509228515625,-0.0215301513671875,1.0289459228515625,-0.014190673828125
1764585673524047400,9.28504736328125,-0.02850341796875,1.0309906005859375,0.0145721435546875
1764585673534001400,9.29500146484375,-0.04351806640625,1.033355712890625,0.0386962890625
1764585673543955200,9.304955078125,-0.06671142578125,1.0309295654296875,0.0565643310546875
1764585673553909200,9.3149091796875,-0.0909576416015625,1.02679443359375,0.0758209228515625
1764585673563864300,9.3248642578125,-0.107574462890625,1.020477294921875,0.094879150390625
1764585673573818000,9.334818115234375,-0.1226654052734375,1.0101470947265625,0.109130859375
1764585673583772200,9.344772216796875,-0.1407012939453125,0.9962158203125,0.118743896484375
1764585673593726500,9.3547265625,-0.1506500244140625,0.9931182861328125,0.12445068359375
1764585673603681300,9.364681396484375,-0.155975341796875,0.9976654052734375,0.130859375
1764585673613635300,9.37463525390625,-0.153167724609375,1.0068206787109375,0.1381378173828125
1764585673623589400,9.38458935546875,-0.1611328125,1.0027618408203125,0.15032958984375
1764585673633543200,9.394543212890625,-0.1884613037109375,0.987396240234375,0.146331787109375
1764585673643497200,9.404497314453126,-0.22784423828125,0.9633026123046875,0.13311767578125
1764585673653452300,9.414452392578125,-0.2616729736328125,0.92083740234375,0.1269073486328125
1764585673663406300,9.42440625,-0.284332275390625,0.8719940185546875,0.11676025390625
1764585673673360400,9.4343603515625,-0.2939300537109375,0.8219451904296875,0.142852783203125
1764585673683314400,9.444314453125,-0.2942962646484375,0.7885589599609375,0.1651611328125
1764585673693269200,9.454269287109375,-0.303192138671875,0.76922607421875,0.1767730712890625
1764585673703223300,9.464223388671876,-0.324127197265625,0.776336669921875,0.219482421875
1764585673713177000,9.474177001953125,-0.3402252197265625,0.8023834228515625,0.2662200927734375
1764585673723131400,9.48413134765625,-0.375946044921875,0.852264404296875,0.268951416015625
1764585673733085400,9.49408544921875,-0.387908935546875,0.9563751220703125,0.2888031005859375
1764585673743040300,9.504040283203125,-0.3902740478515625,1.0706024169921875,0.3108062744140625
1764585673752994300,9.513994384765626,-0.3934783935546875,1.1532745361328125,0.3083038330078125
1764585673762948400,9.5239482421875,-0.3727569580078125,1.2095184326171875,0.311309814453125
1764585673772902100,9.533902099609374,-0.329193115234375,1.2408294677734375,0.3132171630859375
1764585673782857500,9.543857421875,-0.2475738525390625,1.2307586669921875,0.3225555419921875
1764585673792811500,9.5538115234375,-0.1355438232421875,1.1559295654296875,0.321807861328125
1764585673802765300,9.563765380859374,-0.037261962890625,1.0590667724609375,0.2890625
1764585673812719400,9.57371923828125,0.0099639892578125,0.9880523681640625,0.2615509033203125
1764585673822673400,9.58367333984375,0.034942626953125,0.9711456298828125,0.2295684814453125
1764585673832628200,9.593628173828124,0.0266876220703125,0.983917236328125,0.224761962890625
1764585673842582300,9.603582275390625,0.022003173828125,1.00982666015625,0.2126617431640625
1764585673852536300,9.613536376953125,0.031097412109375,1.02490234375,0.231658935546875
1764585673862490400,9.623490478515626,0.0396575927734375,1.032318115234375,0.2254791259765625
1764585673872445400,9.633445556640625,0.04522705078125,1.0390625,0.2354583740234375
1764585673882399200,9.643399169921874,0.0502471923828125,1.0404052734375,0.2492828369140625
1764585673892353300,9.653353271484375,0.034210205078125,1.011932373046875,0.25506591796875
1764585673902307300,9.663307373046875,0.0119781494140625,0.9647216796875,0.2791595458984375
1764585673912262100,9.67326220703125,-0.0019683837890625,0.9195098876953125,0.3137969970703125
1764585673922216400,9.683216552734375,-0.037872314453125,0.881378173828125,0.323394775390625
1764585673932170500,9.69317041015625,-0.0513458251953125,0.83282470703125,0.3135833740234375
1764585673942124300,9.703124267578126,-0.057647705078125,0.7722625732421875,0.281768798828125
1764585673952078300,9.713078369140625,-0.07659912109375,0.72576904296875,0.2671661376953125
1764585673962033200,9.723033203125,-0.094940185546875,0.7029876708984375,0.25567626953125
1764585673971987200,9.7329873046875,-0.115264892578125,0.7242889404296875,0.24639892578125
1764585673981941200,9.742941162109375,-0.1742706298828125,0.8567962646484375,0.2638702392578125
1764585673991895300,9.752895263671874,-0.2229766845703125,1.04412841796875,0.284088134765625
1764585674001850400,9.762850341796875,-0.2848052978515625,1.14642333984375,0.2744140625
1764585674011804400,9.772804443359375,-0.345733642578125,1.185333251953125,0.239532470703125
1764585674021758200,9.78275830078125,-0.2976531982421875,1.2024688720703125,0.31396484375
1764585674031712300,9.792712158203125,-0.2695465087890625,1.1996612548828125,0.375701904296875
1764585674041666300,9.802666259765624,-0.2162933349609375,1.20233154296875,0.3782501220703125
1764585674051621000,9.81262109375,-0.1433258056640625,1.217376708984375,0.3511810302734375
1764585674061575400,9.822575439453125,-0.1159820556640625,1.1698455810546875,0.3082275390625
1764585674071529500,9.832529541015624,-0.1219329833984375,1.1220855712890625,0.2456512451171875
1764585674081483300,9.842483154296875,-0.1331634521484375,1.0701141357421875,0.1904144287109375
1764585674091438300,9.852438232421875,-0.146636962890625,0.999267578125,0.15948486328125
1764585674101392400,9.862392333984374,-0.1286773681640625,0.9205169677734375,0.1380462646484375
1764585674111346200,9.87234619140625,-0.1235809326171875,0.8687744140625,0.10540771484375
1764585674121300200,9.88230029296875,-0.1323699951171875,0.8374176025390625,0.1015167236328125
1764585674131254300,9.892254150390626,-0.1299896240234375,0.7973175048828125,0.1137847900390625
1764585674141209300,9.902209228515625,-0.12744140625,0.74688720703125,0.1213226318359375
1764585674151163400,9.912163330078124,-0.126495361328125,0.7081451416015625,0.145599365234375
1764585674161117400,9.922117431640626,-0.123077392578125,0.6900177001953125,0.1604461669921875
1764585674171071200,9.9320712890625,-0.131500244140625,0.6824951171875,0.176788330078125
1764585674181026300,9.9420263671875,-0.1399078369140625,0.7001953125,0.202056884765625
1764585674190980000,9.95197998046875,-0.151641845703125,0.74798583984375,0.2298126220703125
1764585674200934400,9.961934326171875,-0.1661376953125,0.8147735595703125,0.2707061767578125
1764585674210888400,9.971888427734376,-0.1794891357421875,0.8770751953125,0.3000640869140625
1764585674220843300,9.98184326171875,-0.1865997314453125,0.9359893798828125,0.326202392578125
1764585674230797300,9.99179736328125,-0.1873321533203125,0.979888916015625,0.3399658203125
1764585674240751400,10.00175146484375,-0.1805267333984375,1.0062103271484375,0.3479766845703125
1764585674250705200,10.011705078125,-0.1629638671875,1.01812744140625,0.35125732421875
1764585674260659200,10.0216591796875,-0.1367340087890625,1.02313232421875,0.3516845703125
1764585674270614300,10.0316142578125,-0.1067352294921875,1.0269775390625,0.349639892578125
1764585674280568300,10.041568359375,-0.0793609619140625,1.0289764404296875,0.3409423828125
1764585674290522400,10.0515224609375,-0.0561370849609375,1.021575927734375,0.328948974609375
1764585674300476400,10.061476318359375,-0.0402679443359375,1.0143890380859375,0.312164306640625
1764585674310431200,10.07143115234375,-0.0362548828125,1.0113372802734375,0.29364013671875
1764585674320385300,10.08138525390625,-0.0420074462890625,1.0107574462890625,0.2758941650390625
1764585674330339000,10.091339111328125,-0.055145263671875,1.0078887939453125,0.254669189453125
1764585674340293400,10.10129345703125,-0.0701446533203125,0.9932403564453125,0.229827880859375
1764585674350247400,10.111247314453125,-0.0852813720703125,0.9958038330078125,0.2102203369140625
1764585674360202200,10.1212021484375,-0.104522705078125,1.002044677734375,0.1974639892578125
1764585674370156300,10.13115625,-0.117767333984375,0.9964599609375,0.181671142578125
1764585674380110300,10.1411103515625,-0.124603271484375,0.98797607421875,0.166961669921875
1764585674390064000,10.151064208984375,-0.132904052734375,0.980987548828125,0.15447998046875
1764585674400019500,10.16101953125,-0.13934326171875,0.9764404296875,0.1454010009765625
1764585674409973500,10.170973388671875,-0.140411376953125,0.974853515625,0.1417236328125
1764585674419927300,10.18092724609375,-0.14239501953125,0.974761962890625,0.139801025390625
1764585674429881300,10.19088134765625,-0.1424713134765625,0.9632720947265625,0.1399688720703125
1764585674439835400,10.20083544921875,-0.13751220703125,0.9344024658203125,0.143829345703125
1764585674449790200,10.210790283203124,-0.1279449462890625,0.9310760498046875,0.1491546630859375
1764585674459744300,10.220744140625,-0.1234130859375,0.9073333740234375,0.1633148193359375
1764585674469698300,10.2306982421875,-0.1033782958984375,0.8787078857421875,0.1683807373046875
1764585674479652400,10.24065234375,-0.094268798828125,0.8560791015625,0.16949462890625
1764585674489607400,10.250607421875,-0.091094970703125,0.861053466796875,0.1827545166015625
1764585674499561200,10.260561279296875,-0.094970703125,0.8875274658203125,0.1901397705078125
1764585674509515300,10.270515380859376,-0.0926666259765625,0.8993988037109375,0.1908111572265625
1764585674519469300,10.28046923828125,-0.0879974365234375,0.9095306396484375,0.187835693359375
1764585674529424100,10.290424072265624,-0.0858917236328125,0.9325714111328125,0.1834564208984375
1764585674539378400,10.30037841796875,-0.0841217041015625,0.96124267578125,0.173065185546875
1764585674549332500,10.31033251953125,-0.07940673828125,0.9878692626953125,0.16741943359375
1764585674559286300,10.320286376953124,-0.0737762451171875,1.003570556640625,0.1620330810546875
1764585674569240300,10.330240234375,-0.0633697509765625,1.0172882080078125,0.1634063720703125
1764585674579195100,10.340195068359375,-0.0504150390625,1.0484161376953125,0.173736572265625
1764585674589149200,10.350149169921876,-0.0372772216796875,1.077117919921875,0.1840057373046875
1764585674599103200,10.360103271484375,-0.0286407470703125,1.0782470703125,0.186065673828125
1764585674609057300,10.370057373046874,-0.032623291015625,1.0568695068359375,0.1847381591796875
1764585674619012400,10.380012451171876,-0.0476837158203125,1.028717041015625,0.1811370849609375
1764585674628966400,10.38996630859375,-0.0654296875,1.0121002197265625,0.179840087890625
1764585674638920200,10.399920166015624,-0.082489013671875,1.00054931640625,0.18084716796875
1764585674648874200,10.409874267578125,-0.1008148193359375,0.9836273193359375,0.1790771484375
1764585674658828300,10.419828369140625,-0.118072509765625,0.968719482421875,0.179473876953125
1764585674668783000,10.429783203125,-0.1336212158203125,0.9574737548828125,0.1849822998046875
1764585674678737400,10.4397373046875,-0.1464385986328125,0.957733154296875,0.190521240234375
1764585674688691500,10.44969140625,-0.15521240234375,0.9615020751953125,0.195220947265625
1764585674698645200,10.459645263671876,-0.1612396240234375,0.9569549560546875,0.1937255859375
1764585674708600300,10.469600341796875,-0.1647186279296875,0.9544677734375,0.1881256103515625
1764585674718554400,10.479554443359374,-0.165283203125,0.9561767578125,0.18359375
1764585674728508200,10.489508056640625,-0.165985107421875,0.963165283203125,0.1805877685546875
1764585674738462200,10.499462158203125,-0.1678009033203125,0.9725189208984375,0.17718505859375
1764585674748416300,10.509416259765626,-0.169708251953125,0.989837646484375,0.17803955078125
1764585674758371300,10.519371337890625,-0.1628875732421875,1.005523681640625,0.1833953857421875
1764585674768325400,10.529325439453125,-0.15185546875,1.0183868408203125,0.19189453125
1764585674778279400,10.539279541015626,-0.1500396728515625,1.02703857421875,0.199981689453125
1764585674788233200,10.549233154296875,-0.1459503173828125,1.0259246826171875,0.206024169921875
1764585674798188300,10.559188232421874,-0.14056396484375,1.0184478759765625,0.210357666015625
1764585674808142000,10.56914208984375,-0.1364288330078125,1.0160369873046875,0.2149200439453125
1764585674818096000,10.57909619140625,-0.1337890625,1.011016845703125,0.218994140625
1764585674828050200,10.58905029296875,-0.1322479248046875,1.00665283203125,0.224334716796875
1764585674838005200,10.599005126953125,-0.1269989013671875,1.005126953125,0.2279510498046875
1764585674847959300,10.608959228515625,-0.1228790283203125,1.00323486328125,0.2276153564453125
1764585674857913300,10.618913330078126,-0.1192474365234375,0.996063232421875,0.2267303466796875
1764585674867867100,10.6288671875,-0.1197357177734375,0.9835052490234375,0.221710205078125
1764585674877821200,10.6388212890625,-0.1234588623046875,0.980987548828125,0.218963623046875
1764585674887776300,10.6487763671875,-0.1278228759765625,0.984710693359375,0.2137451171875
1764585674897730000,10.65872998046875,-0.1339111328125,0.9934539794921875,0.208526611328125
1764585674907684400,10.668684326171874,-0.1391754150390625,0.99993896484375,0.2052154541015625
1764585674917638400,10.678638427734375,-0.142181396484375,1,0.201934814453125
1764585674927593200,10.68859326171875,-0.1443328857421875,0.9904937744140625,0.1975860595703125
1764585674937547300,10.69854736328125,-0.145599365234375,0.966888427734375,0.192718505859375
1764585674947501000,10.7085009765625,-0.1446075439453125,0.9346771240234375,0.1851348876953125
1764585674957455000,10.718455078125,-0.1403961181640625,0.9094390869140625,0.181121826171875
1764585674967409200,10.7284091796875,-0.13055419921875,0.87249755859375,0.175567626953125
1764585674977364200,10.7383642578125,-0.1210174560546875,0.848236083984375,0.167999267578125
1764585674987318300,10.748318359375,-0.11309814453125,0.8502349853515625,0.166778564453125
1764585674997272300,10.758272216796875,-0.1038665771484375,0.850860595703125,0.16314697265625
1764585675007226000,10.76822607421875,-0.09063720703125,0.8584442138671875,0.1638336181640625
1764585675017181200,10.77818115234375,-0.0771636962890625,0.8784637451171875,0.1718597412109375
1764585675027135200,10.78813525390625,-0.067657470703125,0.8964691162109375,0.179534912109375
1764585675037089000,10.798089111328125,-0.0589447021484375,0.9129638671875,0.18707275390625
1764585675047043300,10.808043212890626,-0.052337646484375,0.9354705810546875,0.1993255615234375
1764585675056998100,10.817998046875,-0.0465545654296875,0.971160888671875,0.215057373046875
1764585675066952200,10.8279521484375,-0.0441741943359375,1.00982666015625,0.2289581298828125
1764585675076906200,10.83790625,-0.0469512939453125,1.03179931640625,0.2364501953125
1764585675086860300,10.8478603515625,-0.053192138671875,1.0351715087890625,0.2412261962890625
1764585675096814000,10.85781396484375,-0.057647705078125,1.0429840087890625,0.2444305419921875
1764585675106769400,10.867769287109375,-0.0644683837890625,1.05120849609375,0.2415313720703125
1764585675116723200,10.87772314453125,-0.07464599609375,1.0511932373046875,0.2348480224609375
1764585675126677200,10.88767724609375,-0.0855712890625,1.0576171875,0.2280426025390625
1764585675136631300,10.89763134765625,-0.0923919677734375,1.0636444091796875,0.2180633544921875
1764585675146586000,10.907586181640625,-0.0973052978515625,1.0411529541015625,0.2032623291015625
1764585675156540200,10.9175400390625,-0.103607177734375,0.9971160888671875,0.1901397705078125
1764585675166494200,10.927494140625,-0.106658935546875,0.961334228515625,0.17816162109375
1764585675176448000,10.937447998046874,-0.112457275390625,0.944671630859375,0.17034912109375
1764585675186402300,10.94740234375,-0.1260833740234375,0.9462127685546875,0.1654052734375
1764585675196357400,10.957357421875,-0.1379547119140625,0.955322265625,0.15765380859375
1764585675206311200,10.967311279296876,-0.1429595947265625,0.9582366943359375,0.1520233154296875
1764585675216265200,10.97726513671875,-0.142303466796875,0.969482421875,0.1486053466796875
1764585675226219300,10.98721923828125,-0.140655517578125,0.9753875732421875,0.1513671875
1764585675236174000,10.997174072265626,-0.1308746337890625,0.9774627685546875,0.1570281982421875
1764585675246128400,11.00712841796875,-0.1201629638671875,0.97808837890625,0.1655731201171875
1764585675256082200,11.017082275390624,-0.109649658203125,0.9810028076171875,0.1732025146484375
1764585675266036200,11.0270361328125,-0.1095733642578125,0.9819488525390625,0.1820526123046875
1764585675275990300,11.036990234375,-0.11102294921875,0.9885101318359375,0.1941375732421875
1764585675285945000,11.046945068359374,-0.1097869873046875,0.9911651611328125,0.2057952880859375
1764585675295899100,11.056899169921875,-0.1102294921875,0.9939422607421875,0.2141265869140625
1764585675305853200,11.066853271484375,-0.10882568359375,0.9956817626953125,0.22235107421875
1764585675315807200,11.07680712890625,-0.1052703857421875,0.991546630859375,0.2288055419921875
1764585675325762300,11.08676220703125,-0.1057281494140625,0.982879638671875,0.232269287109375
1764585675335716400,11.09671630859375,-0.10504150390625,0.9760894775390625,0.2343902587890625
1764585675345670100,11.106670166015626,-0.1063232421875,0.974090576171875,0.2346649169921875
1764585675355624200,11.116624267578125,-0.1029815673828125,0.968231201171875,0.2303619384765625
1764585675365579000,11.1265791015625,-0.09906005859375,0.9476318359375,0.2240447998046875
1764585675375533000,11.136532958984375,-0.0945281982421875,0.9283599853515625,0.214447021484375
1764585675385487400,11.1464873046875,-0.0872802734375,0.921722412109375,0.206634521484375
1764585675395441400,11.15644140625,-0.0758819580078125,0.91961669921875,0.199981689453125
1764585675405395200,11.166395263671875,-0.0646514892578125,0.9273529052734375,0.1989288330078125
1764585675415350300,11.176350341796875,-0.052764892578125,0.9337921142578125,0.1990966796875
1764585675425304000,11.186303955078126,-0.0452117919921875,0.9313812255859375,0.200408935546875
1764585675435258000,11.196258056640625,-0.0402679443359375,0.9311676025390625,0.20526123046875
1764585675445212200,11.206212158203124,-0.0381622314453125,0.9364013671875,0.2109222412109375
1764585675455167200,11.216167236328126,-0.045440673828125,0.955657958984375,0.2173614501953125
1764585675465121300,11.226121337890625,-0.0509185791015625,0.9770050048828125,0.229278564453125
1764585675475075300,11.236075439453124,-0.0588531494140625,0.9951629638671875,0.2354736328125
1764585675485029000,11.246029052734375,-0.0662841796875,1.0135040283203125,0.2484588623046875
1764585675494983200,11.255983154296874,-0.0689697265625,1.023590087890625,0.25909423828125
1764585675504938200,11.265938232421876,-0.0704498291015625,1.02130126953125,0.261383056640625
1764585675514892000,11.27589208984375,-0.074676513671875,1.017364501953125,0.25738525390625
1764585675524846300,11.285846435546874,-0.078369140625,1.02178955078125,0.2497406005859375
1764585675534800400,11.29580029296875,-0.0851593017578125,1.0149993896484375,0.2364959716796875
1764585675544755200,11.305755126953125,-0.0964508056640625,1.002166748046875,0.2254486083984375
1764585675554709200,11.315709228515624,-0.1069488525390625,1.0059661865234375,0.22003173828125
1764585675564663300,11.325663330078125,-0.115325927734375,0.9933624267578125,0.2152557373046875
1764585675574617000,11.3356171875,-0.119873046875,0.9686279296875,0.2049407958984375
1764585675584571100,11.345571044921876,-0.1170806884765625,0.9547882080078125,0.1898651123046875
1764585675594526200,11.355526123046875,-0.1105194091796875,0.9592742919921875,0.1792144775390625
1764585675604480300,11.365480224609374,-0.1022491455078125,0.957977294921875,0.1712646484375
1764585675614434300,11.375434326171876,-0.0889892578125,0.95062255859375,0.1597900390625
1764585675624388000,11.38538818359375,-0.075897216796875,0.95281982421875,0.1551666259765625
1764585675634343200,11.39534326171875,-0.06646728515625,0.9669036865234375,0.157928466796875
1764585675644297200,11.405297119140625,-0.06158447265625,0.993743896484375,0.1653900146484375
1764585675654251000,11.4152509765625,-0.0604400634765625,1.0128173828125,0.1687164306640625
1764585675664205300,11.425205322265626,-0.0623931884765625,1.0184478759765625,0.165924072265625
1764585675674160000,11.43516015625,-0.066497802734375,1.0117340087890625,0.163818359375
1764585675684114200,11.4451142578125,-0.076812744140625,1.0095977783203125,0.166107177734375
1764585675694068200,11.455068115234376,-0.094573974609375,1.019012451171875,0.173858642578125
1764585675704022300,11.465022216796875,-0.1184539794921875,1.0290374755859375,0.1865081787109375
1764585675713976000,11.47497607421875,-0.1347808837890625,1.0225067138671875,0.19720458984375
1764585675723931400,11.484931396484376,-0.140777587890625,1.002655029296875,0.201416015625
1764585675733885200,11.49488525390625,-0.1443634033203125,0.9676513671875,0.198394775390625
1764585675743839200,11.504839111328126,-0.14697265625,0.9412841796875,0.1957244873046875
1764585675753793300,11.514793212890625,-0.1476287841796875,0.9347686767578125,0.1895904541015625
1764585675763748000,11.524748046875,-0.1479034423828125,0.936553955078125,0.1868896484375
1764585675773702100,11.5347021484375,-0.1359100341796875,0.9337921142578125,0.18328857421875
1764585675783656400,11.544656494140625,-0.1204376220703125,0.908935546875,0.176055908203125
1764585675793610500,11.554610595703124,-0.096954345703125,0.860931396484375,0.1714019775390625
1764585675803564500,11.564564453125,-0.0760345458984375,0.820831298828125,0.17138671875
1764585675813519400,11.574519287109375,-0.0552825927734375,0.784698486328125,0.1790924072265625
1764585675823473400,11.584473388671874,-0.039947509765625,0.7460174560546875,0.1844024658203125
1764585675833427500,11.594427490234375,-0.0287322998046875,0.71990966796875,0.1924896240234375
1764585675843381500,11.604381591796875,-0.0242919921875,0.74896240234375,0.214813232421875
1764585675853336600,11.614336669921874,-0.0230560302734375,0.843170166015625,0.241912841796875
1764585675863290600,11.62429052734375,-0.011627197265625,0.921295166015625,0.253997802734375
1764585675873244400,11.634244384765625,0.00238037109375,0.950286865234375,0.247650146484375
1764585675883198500,11.644198486328126,0.01580810546875,0.9789581298828125,0.2328948974609375
1764585675893152500,11.654152587890625,0.007171630859375,1.0341949462890625,0.230682373046875
1764585675903107300,11.664107421875,-0.01220703125,1.0950164794921875,0.243072509765625
1764585675913061400,11.674061279296875,-0.0282135009765625,1.14678955078125,0.240447998046875
1764585675923015400,11.684015380859375,-0.0447235107421875,1.1817474365234375,0.2547607421875
1764585675932969500,11.693969482421876,-0.0638427734375,1.1893463134765625,0.249359130859375
1764585675942924500,11.703924560546875,-0.087799072265625,1.1795196533203125,0.2421112060546875
1764585675952878600,11.713878662109375,-0.112396240234375,1.1555023193359375,0.23101806640625
1764585675962832400,11.723832275390626,-0.13287353515625,1.1241607666015625,0.21771240234375
1764585675972786400,11.733786376953125,-0.1502532958984375,1.0910186767578125,0.2083892822265625
1764585675982740500,11.743740478515624,-0.159393310546875,1.0453643798828125,0.2010650634765625
1764585675992695600,11.753695556640626,-0.162078857421875,0.9776153564453125,0.190704345703125
1764585676002649600,11.763649658203125,-0.1610260009765625,0.9104156494140625,0.18023681640625
1764585676012603600,11.773603759765624,-0.156982421875,0.863739013671875,0.1727294921875
1764585676022557400,11.783557373046875,-0.15576171875,0.83935546875,0.16534423828125
1764585676032512500,11.793512451171875,-0.152191162109375,0.830230712890625,0.1611480712890625
1764585676042466300,11.80346630859375,-0.143798828125,0.8335113525390625,0.1615142822265625
1764585676052420400,11.81342041015625,-0.1298065185546875,0.8442230224609375,0.1716461181640625
1764585676062374400,11.82337451171875,-0.106842041015625,0.8600006103515625,0.186279296875
1764585676072329500,11.83332958984375,-0.0779266357421875,0.8790435791015625,0.2017669677734375
1764585676082283500,11.843283447265625,-0.0588226318359375,0.89093017578125,0.21136474609375
1764585676092237600,11.853237548828124,-0.0437164306640625,0.9105377197265625,0.21502685546875
1764585676102191400,11.86319140625,-0.0399322509765625,0.921173095703125,0.21832275390625
1764585676112145400,11.8731455078125,-0.0293731689453125,0.93255615234375,0.22564697265625
1764585676122100500,11.8831005859375,-0.0208740234375,0.9400634765625,0.237518310546875
1764585676132054500,11.893054443359375,-0.0178070068359375,0.9580535888671875,0.2552490234375
1764585676142008600,11.903008544921875,-0.0179290771484375,0.99200439453125,0.2724456787109375
1764585676151962600,11.912962646484376,-0.0307769775390625,1.0258636474609375,0.2895355224609375
1764585676161917400,11.92291748046875,-0.0518951416015625,1.050323486328125,0.294097900390625
1764585676171871500,11.93287158203125,-0.0690460205078125,1.0574951171875,0.287384033203125
1764585676181825300,11.9428251953125,-0.078857421875,1.044952392578125,0.270538330078125
1764585676191779300,11.952779296875,-0.0789642333984375,1.0228118896484375,0.2589874267578125
1764585676201733400,11.9627333984375,-0.0872650146484375,1.0151519775390625,0.246917724609375
1764585676211688400,11.9726884765625,-0.0984954833984375,1.0119171142578125,0.23907470703125
1764585676221642500,11.982642578125,-0.1103515625,0.9892120361328125,0.2220306396484375
1764585676231596500,11.992596435546876,-0.113525390625,0.965118408203125,0.2031097412109375
1764585676241550300,12.00255029296875,-0.123046875,0.94287109375,0.1851654052734375
1764585676251505400,12.01250537109375,-0.12890625,0.9322967529296875,0.17608642578125
1764585676261459500,12.02245947265625,-0.129241943359375,0.934844970703125,0.1733245849609375
1764585676271413500,12.03241357421875,-0.1283416748046875,0.940460205078125,0.1765289306640625
1764585676281367600,12.042367431640624,-0.12469482421875,0.9531707763671875,0.186859130859375
1764585676291322400,12.052322265625,-0.122772216796875,0.9604949951171875,0.1903533935546875
1764585676301276400,12.0622763671875,-0.1168365478515625,0.974212646484375,0.195281982421875
1764585676311230500,12.07223046875,-0.1121826171875,0.9917144775390625,0.1981201171875
1764585676321184500,12.0821845703125,-0.1080474853515625,1.008392333984375,0.1989593505859375
1764585676331138300,12.09213818359375,-0.09967041015625,1.02337646484375,0.1993255615234375
1764585676341093600,12.10209375,-0.0876922607421875,1.0189361572265625,0.1959075927734375
1764585676351047400,12.11204736328125,-0.0774078369140625,1.0047607421875,0.1910400390625
1764585676361001500,12.12200146484375,-0.068206787109375,1.0012664794921875,0.1877899169921875
1764585676370955500,12.13195556640625,-0.06329345703125,0.994384765625,0.1844482421875
1764585676380910300,12.141910400390625,-0.063446044921875,0.9856719970703125,0.1886749267578125
1764585676390864400,12.151864501953124,-0.0680999755859375,0.9851226806640625,0.19195556640625
1764585676400818700,12.161818603515625,-0.080413818359375,0.9898529052734375,0.1899871826171875
1764585676410772500,12.1717724609375,-0.0902099609375,0.98052978515625,0.18701171875
1764585676420726500,12.1817265625,-0.0960540771484375,0.96478271484375,0.1779937744140625
1764585676430681300,12.191681396484375,-0.1003570556640625,0.9672393798828125,0.1760406494140625
1764585676440635400,12.201635498046874,-0.101654052734375,0.9678497314453125,0.1729583740234375
1764585676450589400,12.21158935546875,-0.0912017822265625,0.953277587890625,0.1750335693359375
1764585676460543500,12.22154345703125,-0.076141357421875,0.9333648681640625,0.1796875
1764585676470498600,12.23149853515625,-0.0643463134765625,0.9180755615234375,0.18206787109375
1764585676480452600,12.24145263671875,-0.06231689453125,0.914581298828125,0.1849517822265625
1764585676490406400,12.251406494140625,-0.058929443359375,0.92230224609375,0.1913909912109375
1764585676500360400,12.2613603515625,-0.0587005615234375,0.9412689208984375,0.20074462890625
1764585676510314500,12.271314453125,-0.06341552734375,0.967987060546875,0.220977783203125
1764585676520269300,12.281269287109374,-0.0756378173828125,0.9876556396484375,0.2336578369140625
1764585676530223400,12.291223388671876,-0.0854644775390625,0.9945831298828125,0.243560791015625
1764585676540177700,12.301177734375,-0.08917236328125,0.9792022705078125,0.2410888671875
1764585676550131500,12.31113134765625,-0.094146728515625,0.9657440185546875,0.23602294921875
1764585676560086500,12.32108642578125,-0.101806640625,0.9704437255859375,0.23394775390625
1764585676570040600,12.33104052734375,-0.107818603515625,0.9839630126953125,0.23492431640625
1764585676579994400,12.340994384765626,-0.1103057861328125,0.9974212646484375,0.234649658203125
1764585676589948400,12.350948486328125,-0.1186676025390625,1.003509521484375,0.2349395751953125
1764585676599903500,12.360903564453125,-0.1212158203125,1.001861572265625,0.230621337890625
1764585676609857500,12.370857421875,-0.1219482421875,0.998321533203125,0.22601318359375
1764585676619811600,12.3808115234375,-0.12420654296875,1.0010986328125,0.226776123046875
1764585676629765600,12.390765625,-0.1279754638671875,1.0037689208984375,0.2263336181640625
1764585676639719400,12.400719482421875,-0.12835693359375,0.99078369140625,0.2251739501953125
1764585676649674500,12.410674560546875,-0.1283111572265625,0.9730224609375,0.21856689453125
1764585676659628300,12.420628173828124,-0.1280059814453125,0.95953369140625,0.2116241455078125
1764585676669582300,12.430582275390625,-0.117156982421875,0.9495849609375,0.20330810546875
1764585676679536600,12.44053662109375,-0.10186767578125,0.909881591796875,0.1908416748046875
1764585676689491500,12.450491455078126,-0.090179443359375,0.856292724609375,0.1818084716796875
1764585676699445500,12.460445556640625,-0.0803375244140625,0.8282470703125,0.180419921875
1764585676709399600,12.470399658203124,-0.0772552490234375,0.8287811279296875,0.187530517578125
1764585676719353300,12.480353271484375,-0.07867431640625,0.8459625244140625,0.1952362060546875
1764585676729307400,12.490307373046875,-0.0770721435546875,0.873199462890625,0.1990814208984375
1764585676739262500,12.500262451171874,-0.071746826171875,0.897186279296875,0.1991424560546875
1764585676749216500,12.510216552734375,-0.0517730712890625,0.9057464599609375,0.2008209228515625
1764585676759170600,12.520170654296875,-0.0358734130859375,0.917449951171875,0.1980743408203125
1764585676769124600,12.53012451171875,-0.0248870849609375,0.9381561279296875,0.195648193359375
1764585676779079400,12.540079345703125,-0.018218994140625,0.972442626953125,0.200592041015625
1764585676789034000,12.550033935546875,-0.0163421630859375,1.006591796875,0.2075042724609375
1764585676798987800,12.55998779296875,-0.0201263427734375,1.027069091796875,0.217498779296875
1764585676808941800,12.56994189453125,-0.0353546142578125,1.0455169677734375,0.231231689453125
1764585676818896000,12.579895751953124,-0.0573577880859375,1.064788818359375,0.2438812255859375
1764585676828851000,12.589850830078126,-0.083221435546875,1.0747528076171875,0.2507781982421875
1764585676838805000,12.599804931640625,-0.103485107421875,1.07464599609375,0.259490966796875
1764585676848759000,12.609759033203124,-0.1180419921875,1.0650787353515625,0.26593017578125
1764585676858712800,12.619712890625,-0.130706787109375,1.042572021484375,0.26043701171875
1764585676868668000,12.62966796875,-0.1401214599609375,1.0186920166015625,0.2484130859375
1764585676878621700,12.63962158203125,-0.1504058837890625,0.9965362548828125,0.228546142578125
1764585676888576000,12.649575927734375,-0.1544952392578125,0.9787750244140625,0.208892822265625
1764585676898530000,12.659530029296874,-0.157379150390625,0.9630126953125,0.1922607421875
1764585676908484900,12.66948486328125,-0.1541595458984375,0.9527130126953125,0.181976318359375
1764585676918439000,12.67943896484375,-0.1385040283203125,0.9443511962890625,0.175506591796875
1764585676928393000,12.68939306640625,-0.1143646240234375,0.9276123046875,0.1695404052734375
1764585676938346800,12.6993466796875,-0.0926513671875,0.912200927734375,0.1686553955078125
1764585676948300800,12.70930078125,-0.07830810546875,0.9133758544921875,0.170928955078125
1764585676958256000,12.719256103515624,-0.0759735107421875,0.9351654052734375,0.1791229248046875
1764585676968210000,12.7292099609375,-0.0821075439453125,0.9622802734375,0.1883544921875
1764585676978164000,12.7391640625,-0.0853118896484375,0.9793853759765625,0.20123291015625
1764585676988118000,12.749117919921876,-0.081268310546875,0.9864044189453125,0.214569091796875
1764585676998072800,12.75907275390625,-0.07672119140625,0.979400634765625,0.2277069091796875
1764585677008027000,12.76902685546875,-0.074432373046875,0.9567108154296875,0.235748291015625
1764585677017981000,12.77898095703125,-0.0701446533203125,0.925018310546875,0.237457275390625
1764585677027935000,12.78893505859375,-0.0628662109375,0.88311767578125,0.22625732421875
1764585677037889000,12.798888916015626,-0.0544281005859375,0.8629150390625,0.2127227783203125
1764585677047843800,12.80884375,-0.0562896728515625,0.88360595703125,0.2025604248046875
1764585677057798000,12.8187978515625,-0.06658935546875,0.92547607421875,0.1995391845703125
1764585677067752000,12.828751953125,-0.0714569091796875,0.9669952392578125,0.1996002197265625
1764585677077706000,12.8387060546875,-0.0686187744140625,0.98797607421875,0.19964599609375
1764585677087661000,12.8486611328125,-0.0609893798828125,0.993011474609375,0.1981353759765625
1764585677097615000,12.858614990234376,-0.05621337890625,0.999053955078125,0.2033233642578125
1764585677107569000,12.86856884765625,-0.0529632568359375,1.0020599365234375,0.2074737548828125
1764585677117523000,12.87852294921875,-0.0660247802734375,1.0014801025390625,0.2087860107421875
1764585677127477800,12.888477783203125,-0.084075927734375,1.0256195068359375,0.2193756103515625
1764585677137431800,12.898431884765625,-0.0976715087890625,1.0438690185546875,0.2209930419921875
1764585677147385900,12.9083857421875,-0.109039306640625,1.0345001220703125,0.2158966064453125
1764585677157340000,12.91833984375,-0.1154327392578125,1.021270751953125,0.2109832763671875
1764585677167294000,12.9282939453125,-0.1136932373046875,1.0107421875,0.2051849365234375
1764585677177249000,12.9382490234375,-0.1059417724609375,1.0054931640625,0.2014923095703125
1764585677187202800,12.948202880859375,-0.09649658203125,1.0005340576171875,0.2039031982421875
1764585677197156900,12.958156982421874,-0.0930023193359375,0.9868927001953125,0.204437255859375
1764585677207111000,12.96811083984375,-0.0926055908203125,0.961883544921875,0.2031707763671875
1764585677217065700,12.978065673828125,-0.090118408203125,0.9438629150390625,0.2003936767578125
1764585677227020000,12.98802001953125,-0.0885467529296875,0.940887451171875,0.198486328125
1764585677236974000,12.99797412109375,-0.0876617431640625,0.952545166015625,0.1978607177734375
