time,seconds_elapsed,z,y,x
1764585664362463200,0.123463134765625,0.7198591828346252,1.0365413427352905,-0.8690159916877747
1764585664372417300,0.133417236328125,0.685364305973053,1.1131410598754883,-0.9779320955276489
1764585664382371000,0.14337109375,0.6076561808586121,1.1452914476394653,-1.0987573862075806
1764585664392326100,0.153326171875,0.49437591433525085,1.1341605186462402,-1.2606126070022583
1764585664402280400,0.163280517578125,0.36835843324661255,1.0664504766464233,-1.4387720823287964
1764585664412234200,0.173234130859375,0.23134413361549377,0.9932623505592346,-1.5943776369094849
1764585664422188300,0.183188232421875,0.09680873900651932,0.911432147026062,-1.7234686613082886
1764585664432142300,0.193142333984375,-0.05272962152957916,0.8099755644798279,-1.9056979417800903
1764585664442096000,0.20309619140625,-0.17663483321666718,0.7312331199645996,-2.0495376586914062
1764585664452050200,0.21305029296875,-0.2364494353532791,0.6740649342536926,-2.117933750152588
1764585664462004200,0.223004150390625,-0.2324674129486084,0.6209917664527893,-2.1016013622283936
1764585664471959000,0.232958984375,-0.18782751262187958,0.582614004611969,-1.9970625638961792
1764585664481913300,0.242913330078125,-0.13624761998653412,0.5528962016105652,-1.8468308448791504
1764585664491867400,0.252867431640625,-0.11128474026918411,0.509712278842926,-1.7031011581420898
1764585664501821200,0.2628212890625,-0.13150937855243683,0.49478331208229065,-1.4470247030258179
1764585664511775200,0.272775146484375,-0.17366242408752441,0.47618138790130615,-1.1145527362823486
1764585664521729300,0.282729248046875,-0.19911153614521027,0.4033544361591339,-0.8273895978927612
1764585664531683300,0.292683349609375,-0.19552692770957947,0.3138889968395233,-0.6261246800422668
1764585664541637000,0.30263720703125,-0.16344904899597168,0.18092520534992218,-0.5224052667617798
1764585664551591200,0.312591064453125,-0.13134944438934326,0.05448923259973526,-0.48943379521369934
1764585664561546200,0.322546142578125,-0.11407271027565002,-0.04391155391931534,-0.5246163010597229
1764585664571500300,0.332500244140625,-0.1159832626581192,-0.10263451933860779,-0.5591326951980591
1764585664581454300,0.342454345703125,-0.16086013615131378,-0.3372407853603363,-0.7820351719856262
1764585664591408000,0.352408203125,-0.5079520344734192,-0.5432749390602112,-1.015775442123413
1764585664601362200,0.362362060546875,-0.7383727431297302,-0.5090657472610474,-0.8260533213615417
1764585664611316200,0.372316162109375,-0.7066377401351929,-0.6746957302093506,-0.7731727957725525
1764585664621270300,0.382270263671875,-0.5379945635795593,-0.7706153392791748,-0.7234881520271301
1764585664631224000,0.39222412109375,-0.3163154423236847,-0.8313857316970825,-0.6920708417892456
1764585664641179400,0.402179443359375,-0.09748142212629318,-0.7441893815994263,-0.6047463417053223
1764585664651133200,0.41213330078125,0.10433238744735718,-0.5153511166572571,-0.4230141043663025
1764585664661087200,0.422087158203125,0.2830503582954407,-0.11782938241958618,-0.230940580368042
1764585664671041300,0.432041259765625,0.43316394090652466,0.3666997253894806,-0.044999733567237854
1764585664680995300,0.441995361328125,0.5523068904876709,0.8730774521827698,0.16806413233280182
1764585664690949000,0.45194921875,0.6367053985595703,1.3425450325012207,0.4147828221321106
1764585664700903200,0.461903076171875,0.6821272373199463,1.724481463432312,0.6774475574493408
1764585664710857200,0.471857177734375,0.7103639245033264,1.9368128776550293,0.923784613609314
1764585664720812300,0.481812255859375,0.7170839905738831,2.0341644287109375,1.1270098686218262
1764585664730766300,0.491766357421875,0.7140051126480103,2.1416659355163574,1.283039927482605
1764585664740720400,0.501720458984375,0.7126308679580688,2.2192013263702393,1.3275412321090698
1764585664750674200,0.511674072265625,0.704544186592102,2.017935037612915,1.2174512147903442
1764585664760628200,0.521628173828125,0.6821238994598389,1.7800993919372559,1.01680326461792
1764585664770582300,0.531582275390625,0.6583024859428406,1.5405718088150024,0.7896973490715027
1764585664780536000,0.5415361328125,0.6197118163108826,1.0386083126068115,0.45600074529647827
1764585664790489900,0.55148974609375,0.36973050236701965,0.2823663651943207,-0.10146784782409668
1764585664800445000,0.56144482421875,0.20976702868938446,-0.09913153201341629,-0.3773130774497986
1764585664810398700,0.571398681640625,0.050220783799886703,-0.3809370994567871,-0.49047932028770447
1764585664820353000,0.58135302734375,-0.08081451803445816,-0.5696967244148254,-0.45462584495544434
1764585664830307000,0.59130712890625,-0.17840100824832916,-0.6386904716491699,-0.3242521286010742
1764585664840260900,0.6012607421875,-0.2516988515853882,-0.6274080276489258,-0.15033294260501862
1764585664850215000,0.61121484375,-0.2744094729423523,-0.4691014885902405,0.11450750380754471
1764585664860169000,0.6211689453125,-0.19941279292106628,-0.14711974561214447,0.38542208075523376
1764585664870123000,0.631123046875,-0.037186603993177414,0.12116630375385284,0.5411384105682373
1764585664880077800,0.641077880859375,0.08060447126626968,0.40886402130126953,0.6642546653747559
1764585664890031900,0.651031982421875,0.20282359421253204,0.6897135376930237,0.7528178691864014
1764585664899986000,0.66098583984375,0.34402599930763245,0.8423461318016052,0.754562258720398
1764585664909940000,0.67093994140625,0.42609903216362,0.7499487996101379,0.7156550288200378
1764585664919894000,0.68089404296875,0.4486284554004669,0.5497819185256958,0.6789565682411194
1764585664929848000,0.69084814453125,0.42803770303726196,0.3832312822341919,0.6424563527107239
1764585664939801900,0.7008017578125,0.355563223361969,0.28763219714164734,0.6594861745834351
1764585664949757000,0.7107568359375,0.2798926830291748,0.21812184154987335,0.6564549207687378
1764585664959710700,0.720710693359375,0.26065513491630554,0.19700776040554047,0.623864471912384
1764585664969664800,0.730664794921875,0.3320009708404541,0.2110237181186676,0.5767598152160645
1764585664979619000,0.740619140625,0.35752224922180176,0.3020937144756317,0.5763179659843445
1764585664989573000,0.750572998046875,0.3860225975513458,0.3511222302913666,0.5567389130592346
1764585664999527000,0.76052685546875,0.39880087971687317,0.37918853759765625,0.5278668999671936
1764585665009481000,0.77048095703125,0.41470688581466675,0.3821190893650055,0.5045328140258789
1764585665019435000,0.78043505859375,0.44967231154441833,0.3458852767944336,0.4759925305843353
1764585665029389800,0.790389892578125,0.4797074496746063,0.31337207555770874,0.4339100420475006
1764585665039343900,0.80034375,0.5180863738059998,0.2893126606941223,0.3639442026615143
1764585665049298000,0.8102978515625,0.5501676201820374,0.2584247887134552,0.25830700993537903
1764585665059252000,0.820251953125,0.5630607008934021,0.20992308855056763,0.14107482135295868
1764585665069206000,0.8302060546875,0.5726257562637329,0.2007109522819519,0.021516993641853333
1764585665079160000,0.84016015625,0.5892833471298218,0.21008025109767914,-0.055590126663446426
1764585665089113900,0.85011376953125,0.59883713722229,0.19697004556655884,-0.05633901059627533
1764585665099068000,0.86006787109375,0.6097976565361023,0.052689019590616226,0.018611308187246323
1764585665109023000,0.87002294921875,0.6081081032752991,-0.23180022835731506,0.15672257542610168
1764585665118976800,0.879976806640625,0.5966444611549377,-0.5799486637115479,0.3229653835296631
1764585665128930800,0.889930908203125,0.5754725933074951,-0.8618357181549072,0.4467986226081848
1764585665138885000,0.899885009765625,0.5554326176643372,-0.9621878862380981,0.5304890871047974
1764585665148839000,0.9098388671875,0.5151951909065247,-0.8634793758392334,0.5311868190765381
1764585665158793000,0.91979296875,0.47102105617523193,-0.5607105493545532,0.4589259922504425
1764585665168747000,0.9297470703125,0.43663883209228516,-0.19598402082920074,0.34008854627609253
1764585665178700800,0.93970068359375,0.40566200017929077,0.07500042021274567,0.19596965610980988
1764585665188655900,0.94965576171875,0.34475281834602356,0.21854747831821442,0.07035714387893677
1764585665198610000,0.95960986328125,0.26718568801879883,0.25779885053634644,-0.05245170369744301
1764585665208564000,0.96956396484375,0.18311181664466858,0.23230308294296265,-0.16253186762332916
1764585665218518000,0.97951806640625,0.1176845133304596,0.19478176534175873,-0.21210786700248718
1764585665228472000,0.98947216796875,0.07416126877069473,0.18342071771621704,-0.18692341446876526
1764585665238425900,0.99942578125,0.05287441238760948,0.23657387495040894,-0.11826913803815842
1764585665248380000,1.0093798828125,0.04093572869896889,0.3444814383983612,-0.03887311369180679
1764585665258335000,1.0193349609375,0.05806320160627365,0.49753043055534363,0.02999809756875038
1764585665268288800,1.029288818359375,0.060865916311740875,0.700174868106842,0.10434530675411224
1764585665278242800,1.039242919921875,0.050171732902526855,0.853179931640625,0.18437492847442627
1764585665288197000,1.049197021484375,0.08309052884578705,0.8925920724868774,0.24877548217773438
1764585665298151000,1.05915087890625,0.14054051041603088,0.8694538474082947,0.31934070587158203
1764585665308105000,1.06910498046875,0.2239680290222168,0.7602179050445557,0.38583239912986755
1764585665318059000,1.07905908203125,0.32429781556129456,0.5686154961585999,0.4360033869743347
1764585665328013800,1.089013916015625,0.4083525240421295,0.3786434531211853,0.4754623770713806
1764585665337967900,1.0989677734375,0.46748483180999756,0.24177776277065277,0.48710474371910095
1764585665347922000,1.108921875,0.504064679145813,0.1815786063671112,0.46286067366600037
1764585665357875700,1.118875732421875,0.6370808482170105,0.0011833501048386097,0.3766312003135681
1764585665367830000,1.128830078125,0.6573357582092285,-0.026535628363490105,0.346821129322052
1764585665377784000,1.1387841796875,0.6062852740287781,-0.025867372751235962,0.3825473189353943
1764585665387738000,1.148738037109375,0.5393217206001282,-0.024248171597719193,0.4382331967353821
1764585665397692000,1.15869189453125,0.5110785961151123,-0.027698207646608353,0.5172534584999084
1764585665407647000,1.16864697265625,0.5634105205535889,-0.08872294425964355,0.6003203988075256
1764585665417600800,1.178600830078125,0.685187816619873,-0.08863301575183868,0.591022253036499
1764585665427554800,1.188554931640625,0.6871727108955383,0.16316886246204376,0.5736251473426819
1764585665437508900,1.1985087890625,0.5842198133468628,0.41326186060905457,0.5568243265151978
1764585665447463000,1.208462890625,0.4960941672325134,0.47265860438346863,0.5102291107177734
1764585665457417000,1.2184169921875,0.4602371156215668,0.40922456979751587,0.40701133012771606
1764585665467371000,1.22837109375,0.4601649343967438,0.3501756191253662,0.29365789890289307
1764585665477325800,1.238325927734375,0.5173566937446594,0.27863940596580505,0.22815582156181335
1764585665487279900,1.24827978515625,0.5780490636825562,0.2393636703491211,0.2088039517402649
1764585665497234000,1.25823388671875,0.5869959592819214,0.33522334694862366,0.2364254593849182
1764585665507188000,1.26818798828125,0.5535791516304016,0.4969552457332611,0.2947883605957031
1764585665517141800,1.278141845703125,0.5403005480766296,0.6557771563529968,0.32911109924316406
1764585665527096000,1.288095947265625,0.5495883226394653,0.7791377305984497,0.3365333080291748
1764585665537048800,1.298048828125,0.581875205039978,0.7993388175964355,0.3061554729938507
1764585665547003100,1.308003173828125,0.6070162653923035,0.7709865570068359,0.24173176288604736
1764585665556957000,1.31795703125,0.6084600687026978,0.6451369524002075,0.13427390158176422
1764585665566911000,1.327910888671875,0.5541062355041504,0.54610675573349,0.026641450822353363
1764585665576865000,1.337864990234375,0.497477263212204,0.4425341784954071,-0.07937353104352951
1764585665586819800,1.34781982421875,0.45070523023605347,0.40952855348587036,-0.15104664862155914
1764585665596774000,1.35777392578125,0.40015140175819397,0.5176963806152344,-0.12511053681373596
1764585665606728000,1.36772802734375,0.3679937422275543,0.7545355558395386,-0.025358904153108597
1764585665616681700,1.377681640625,0.38304850459098816,0.9328200817108154,0.09135472029447556
1764585665626636000,1.387635986328125,0.4235115051269531,1.0135287046432495,0.19616103172302246
1764585665636590000,1.397590087890625,0.4193793535232544,1.093225359916687,0.286194771528244
1764585665646544000,1.4075439453125,0.426768034696579,0.9831634163856506,0.2806689739227295
1764585665656498000,1.417497802734375,0.3939574062824249,0.8029175996780396,0.16252940893173218
1764585665666453000,1.427452880859375,0.2897668182849884,0.6919388771057129,0.01102670282125473
1764585665676406800,1.43740673828125,0.1659918874502182,0.6730719208717346,-0.13962537050247192
1764585665686360800,1.44736083984375,0.05318412557244301,0.7270903587341309,-0.25459909439086914
1764585665696315000,1.45731494140625,-0.017233900725841522,0.7384195923805237,-0.2944640815258026
1764585665706269000,1.46726904296875,-0.020846746861934662,0.6673017144203186,-0.2780584692955017
1764585665716223000,1.477222900390625,0.04177610203623772,0.57049560546875,-0.19689446687698364
1764585665726177000,1.487177001953125,0.1483486145734787,0.4938695728778839,-0.07298637926578522
1764585665736131800,1.4971318359375,0.24999700486660004,0.4430842399597168,0.05120840668678284
1764585665746086000,1.5070859375,0.3008825480937958,0.4364042282104492,0.1891217976808548
1764585665756040000,1.5170400390625,0.31667301058769226,0.5076448321342468,0.28419461846351624
1764585665765993700,1.52699365234375,0.31988024711608887,0.5912774205207825,0.27879583835601807
1764585665775948500,1.536948486328125,0.2881281077861786,0.5885213017463684,0.21631257236003876
1764585665785902600,1.546902587890625,0.22151817381381989,0.4554990828037262,0.12831321358680725
1764585665795856400,1.5568564453125,0.1398647576570511,0.2372942864894867,0.054434020072221756
1764585665805811500,1.5668115234375,0.07920967042446136,0.06707887351512909,0.049683474004268646
1764585665815765500,1.576765625,0.05874646082520485,-0.04648302122950554,0.1175498515367508
1764585665825719300,1.58671923828125,0.05045231431722641,-0.1328708976507187,0.29825571179389954
1764585665835673300,1.59667333984375,0.04449177905917168,-0.14956781268119812,0.5545892119407654
1764585665845627400,1.60662744140625,0.0005885045975446701,-0.05492040142416954,0.7955155372619629
1764585665855581400,1.61658154296875,-0.08472753316164017,0.12131789326667786,0.9157355427742004
1764585665865535500,1.626535400390625,-0.20459508895874023,0.23078234493732452,0.8656654357910156
1764585665875490300,1.636490234375,-0.34921878576278687,0.2295791506767273,0.7042434811592102
1764585665885444400,1.6464443359375,-0.4699918031692505,0.09149132668972015,0.4978111982345581
1764585665895398400,1.6563984375,-0.6066818833351135,0.07097915560007095,0.3074459731578827
1764585665905352400,1.6663525390625,-0.6948956251144409,0.10668016225099564,0.14168362319469452
1764585665915306200,1.67630615234375,-0.8242540955543518,0.5667325854301453,-0.09017419815063477
1764585665925260500,1.686260498046875,-0.9823776483535767,0.979193925857544,-0.16721466183662415
1764585665935214600,1.696214599609375,-1.2115963697433472,1.0587197542190552,-0.10268492996692657
1764585665945168400,1.70616845703125,-1.362823486328125,1.0637611150741577,-0.07039996236562729
1764585665955123500,1.71612353515625,-1.4620579481124878,0.8545230031013489,-0.12427054345607758
1764585665965077500,1.726077392578125,-1.563284158706665,0.6699928045272827,-0.28492841124534607
1764585665975031300,1.73603125,-1.6519994735717773,0.672339141368866,-0.5263158679008484
1764585665984985300,1.7459853515625,-1.6801061630249023,0.8254154920578003,-0.8702570199966431
1764585665994939400,1.755939453125,-1.6142431497573853,1.0723873376846313,-1.2657588720321655
1764585666004893400,1.7658935546875,-1.4619615077972412,1.231188178062439,-1.6578971147537231
1764585666014847500,1.775847412109375,-1.2567178010940552,1.3245059251785278,-1.8077937364578247
1764585666024802600,1.785802490234375,-1.0512328147888184,1.2825748920440674,-1.715187668800354
1764585666034756400,1.79575634765625,-0.8891342878341675,0.9881041646003723,-1.4437698125839233
1764585666044710400,1.80571044921875,-0.7519039511680603,0.5914244651794434,-1.095255970954895
1764585666054664400,1.81566455078125,-0.6134825348854065,0.1447771191596985,-0.7690855264663696
1764585666064618200,1.8256181640625,-0.4537176489830017,-0.23238641023635864,-0.5320362448692322
1764585666074572300,1.835572265625,-0.2883791923522949,-0.4050520658493042,-0.4328410029411316
1764585666084526600,1.845526611328125,-0.12877380847930908,-0.4195979833602905,-0.41614431142807007
1764585666094481400,1.8554814453125,0.003301837481558323,-0.3537558913230896,-0.3180046081542969
1764585666104435500,1.865435546875,0.0878734439611435,-0.20961442589759827,-0.1462797224521637
1764585666114389500,1.875389404296875,0.1534610241651535,-0.00537925073876977,0.020401498302817345
1764585666124343300,1.88534326171875,0.21253658831119537,0.2000194489955902,0.1550850123167038
1764585666134297300,1.89529736328125,0.24269285798072815,0.3420935571193695,0.22977910935878754
1764585666144251400,1.90525146484375,0.23544293642044067,0.3542218506336212,0.2412509322166443
1764585666154205400,1.915205322265625,0.1415473073720932,0.2892736792564392,0.19304396212100983
1764585666164160500,1.925160400390625,0.056392740458250046,-0.009649118408560753,0.05376357585191727
1764585666174114600,1.935114501953125,0.008949702605605125,-0.4188549816608429,-0.13982243835926056
1764585666184068400,1.945068359375,0.005638062488287687,-0.6463804841041565,-0.30372509360313416
1764585666194022400,1.9550224609375,0.01420412864536047,-0.6794726252555847,-0.3925792872905731
1764585666203976400,1.9649765625,0.0027003372088074684,-0.6005956530570984,-0.38059934973716736
1764585666213930500,1.974930419921875,-0.044571734964847565,-0.4072578251361847,-0.283808171749115
1764585666223884300,1.98488427734375,-0.14643605053424835,-0.1554679423570633,-0.14662818610668182
1764585666233839600,1.994839599609375,-0.2669921815395355,0.08951867371797562,-0.010183874517679214
1764585666243793400,2.00479345703125,-0.34613466262817383,0.24656181037425995,0.0680914893746376
1764585666253747500,2.01474755859375,-0.3832017779350281,0.274883508682251,0.0453190915286541
1764585666263701500,2.024701416015625,-0.3630339205265045,0.18434083461761475,-0.0575561560690403
1764585666273655300,2.0346552734375,-0.3032846450805664,0.03379186987876892,-0.1780766099691391
1764585666283609300,2.044609375,-0.21948745846748352,-0.07901271432638168,-0.23774899542331696
1764585666293563400,2.0545634765625,-0.1428813636302948,-0.05888240411877632,-0.23709972202777863
1764585666303517400,2.064517333984375,-0.068660669028759,0.024860693141818047,-0.19450990855693817
1764585666313472500,2.074472412109375,-0.029982950538396835,0.12431754171848297,-0.125142902135849
1764585666323426600,2.084426513671875,-0.026004452258348465,0.2103765308856964,-0.0934094712138176
1764585666333380400,2.09438037109375,-0.019826170057058334,0.2291080504655838,-0.10188784450292587
1764585666343334400,2.10433447265625,0.0041191112250089645,0.21714487671852112,-0.12824515998363495
1764585666353288400,2.114288330078125,0.015215855091810226,0.19388380646705627,-0.1670878678560257
1764585666363242500,2.124242431640625,0.03690197691321373,0.1557968705892563,-0.21885547041893005
1764585666373196300,2.1341962890625,0.06779645383358002,0.16063536703586578,-0.267805278301239
1764585666383151600,2.144151611328125,0.10802324116230011,0.18385466933250427,-0.2872282564640045
1764585666393105400,2.15410546875,0.14623363316059113,0.18276745080947876,-0.2678379714488983
1764585666403059500,2.1640595703125,0.17795667052268982,0.15987464785575867,-0.21312148869037628
1764585666413013500,2.174013427734375,0.20884600281715393,0.10406406223773956,-0.12199717015028
1764585666422967600,2.183967529296875,0.2211783081293106,0.06367217004299164,-0.01888330467045307
1764585666432921300,2.19392138671875,0.2526807188987732,0.09619688242673874,0.09213089197874069
1764585666442875400,2.20387548828125,0.3077698051929474,0.1661970019340515,0.20298737287521362
1764585666452830200,2.213830322265625,0.39992088079452515,0.2489268034696579,0.3018488883972168
1764585666462784500,2.223784423828125,0.48047804832458496,0.3799703121185303,0.38695472478866577
1764585666472738600,2.233738525390625,0.5350058674812317,0.4700888693332672,0.49176573753356934
1764585666482692600,2.243692626953125,0.6590364575386047,0.48964500427246094,0.5782828330993652
1764585666492646400,2.253646484375,0.8085649013519287,0.4325592517852783,0.5994117856025696
1764585666502600400,2.263600341796875,0.904918372631073,0.3101779520511627,0.586531400680542
1764585666512554500,2.273554443359375,0.9382489323616028,0.10657157003879547,0.5732274651527405
1764585666522509300,2.28350927734375,0.9696292281150818,-0.0021447862964123487,0.5560231804847717
1764585666532463400,2.29346337890625,1.049599289894104,0.0152213666588068,0.5166400074958801
1764585666542417400,2.30341748046875,1.1129021644592285,0.09073662757873535,0.42165279388427734
1764585666552371500,2.313371337890625,1.0735796689987183,0.1513756513595581,0.26194918155670166
1764585666562325500,2.323325439453125,0.920332670211792,0.16067887842655182,0.05707484483718872
1764585666572279600,2.333279541015625,0.7333704233169556,0.07380813360214233,-0.17224477231502533
1764585666582233300,2.3432333984375,0.5560142993927002,-0.16563189029693604,-0.36666834354400635
1764585666592188400,2.3531884765625,0.4129420816898346,-0.45464929938316345,-0.48093417286872864
1764585666602142200,2.36314208984375,0.3718535006046295,-0.6136946082115173,-0.4887428283691406
1764585666612096300,2.37309619140625,0.3792976438999176,-0.5849982500076294,-0.454609751701355
1764585666622050600,2.383050537109375,0.387678861618042,-0.3774423897266388,-0.4207172989845276
1764585666632004600,2.393004638671875,0.41078466176986694,-0.2527320683002472,-0.4387419521808624
1764585666641958400,2.40295849609375,0.32589587569236755,-0.3070397973060608,-0.42395925521850586
1764585666651912400,2.412912353515625,0.16518335044384003,-0.4140390455722809,-0.3120587468147278
1764585666661867300,2.4228671875,-0.004077321384102106,-0.47806623578071594,-0.10591835528612137
1764585666671821300,2.4328212890625,-0.0359770730137825,-0.41324129700660706,0.12111586332321167
1764585666681775400,2.442775390625,0.10351743549108505,-0.3613365590572357,0.3183692693710327
1764585666691729400,2.4527294921875,0.270161509513855,-0.36018750071525574,0.4562538266181946
1764585666701683500,2.462683349609375,0.352011114358902,-0.43259167671203613,0.5107335448265076
1764585666711637500,2.472637451171875,0.377424955368042,-0.5895559191703796,0.4730745553970337
1764585666721591600,2.482591552734375,0.38809117674827576,-0.707205057144165,0.37761834263801575
1764585666731546400,2.49254638671875,0.422107994556427,-0.861768364906311,0.27524375915527344
1764585666741500400,2.50250048828125,0.42175087332725525,-1.1909241676330566,0.10415804386138916
1764585666751454500,2.512454345703125,0.2516213059425354,-1.118370771408081,-0.10393554717302322
1764585666761408300,2.522408203125,0.06787039339542389,-0.6855192184448242,-0.15601766109466553
1764585666771362600,2.532362548828125,0.10191904753446579,-0.45924028754234314,-0.11189789324998856
1764585666781316900,2.54231689453125,0.22445908188819885,-0.32366248965263367,-0.07456570118665695
1764585666791270700,2.552270751953125,0.33127903938293457,-0.2992604970932007,-0.06144105643033981
1764585666801226000,2.56222607421875,0.37918636202812195,-0.23643463850021362,-0.08100783079862595
1764585666811179800,2.5721796875,0.42733871936798096,-0.10966116189956665,0.008845923468470573
1764585666821133800,2.5821337890625,0.4941049814224243,0.04176325350999832,0.05034329742193222
1764585666831087900,2.592087890625,0.48052504658699036,0.139053612947464,0.09606378525495529
1764585666841042000,2.6020419921875,0.38166293501853943,0.08963466435670853,0.08203291893005371
1764585666850995700,2.61199560546875,0.24160318076610565,-0.11284568160772324,0.03764713928103447
1764585666860950800,2.62195068359375,0.1048051193356514,-0.40233635902404785,-0.00007547065615653992
1764585666870904600,2.631904541015625,-0.021853068843483925,-0.6422594785690308,0.0392349511384964
1764585666880859000,2.64185888671875,-0.10755331814289093,-0.7909797430038452,0.09706948697566986
1764585666890813000,2.65181298828125,-0.13260838389396667,-0.76583331823349,0.20498338341712952
1764585666900767000,2.66176708984375,-0.11211616545915604,-0.6678609251976013,0.3342420160770416
1764585666910720800,2.671720703125,-0.09581069648265839,-0.5406568050384521,0.5242004990577698
1764585666920674800,2.6816748046875,-0.087135449051857,-0.43859198689460754,0.7024597525596619
1764585666930629600,2.691629638671875,-0.10840830951929092,-0.3964330852031708,0.7961685061454773
1764585666940583700,2.701583740234375,-0.12301308661699295,-0.4552692174911499,0.6924655437469482
1764585666950538000,2.7115380859375,-0.13050726056098938,-0.537591814994812,0.4602508842945099
1764585666960491800,2.72149169921875,-0.1225300207734108,-0.5861268639564514,0.21490557491779327
1764585666970445800,2.73144580078125,-0.11771658062934875,-0.5430349707603455,0.02770140953361988
1764585666980399900,2.74139990234375,-0.09327860921621323,-0.3721558749675751,-0.0393466018140316
1764585666990354000,2.75135400390625,-0.051591403782367706,-0.07596525549888611,0.053188033401966095
1764585667000308700,2.761308837890625,-0.00222012703306973,0.2844022512435913,0.25674569606781006
1764585667010262800,2.7712626953125,0.046273522078990936,0.4574446678161621,0.4301379919052124
1764585667020216600,2.781216552734375,0.05332184210419655,0.31445449590682983,0.46161869168281555
1764585667030171000,2.7911708984375,0.02139320969581604,-0.016638318076729774,0.29890063405036926
1764585667040125000,2.801125,-0.013564507476985455,-0.2782406210899353,-0.0062318528071045876
1764585667050079000,2.811078857421875,-0.03255210071802139,-0.32510313391685486,-0.262325257062912
1764585667060032800,2.82103271484375,-0.012302755378186703,-0.31560125946998596,-0.4047391414642334
1764585667069987800,2.83098779296875,0.01477973721921444,-0.189951092004776,-0.465788334608078
1764585667079941600,2.840941650390625,0.060299020260572433,0.03103615716099739,-0.44273069500923157
1764585667089895700,2.850895751953125,0.07257745414972305,0.2642154395580292,-0.3740181028842926
1764585667099849700,2.860849609375,0.07021283358335495,0.34390971064567566,-0.3271896243095398
1764585667109804000,2.870803955078125,0.03902675583958626,0.2568223476409912,-0.324837863445282
1764585667119757800,2.8807578125,0.01817447319626808,0.16292832791805267,-0.3696972131729126
1764585667129711900,2.8907119140625,0.00277238292619586,0.15665046870708466,-0.4321751892566681
1764585667139666700,2.900666748046875,-0.03157174214720726,0.20893098413944244,-0.4881042242050171
1764585667149620700,2.910620849609375,-0.05907374620437622,0.29467710852622986,-0.5389116406440735
1764585667159574800,2.92057470703125,-0.07219327241182327,0.3777565658092499,-0.5638470649719238
1764585667169528800,2.93052880859375,-0.09514816850423813,0.5306471586227417,-0.5417162775993347
1764585667179482600,2.940482666015625,-0.1856120228767395,0.7644162774085999,-0.45911115407943726
1764585667189437000,2.95043701171875,-0.34028133749961853,0.9925349354743958,-0.33135929703712463
1764585667199391700,2.960391845703125,-0.5706295967102051,1.1811583042144775,-0.16819007694721222
1764585667209345800,2.970345703125,-0.9103780388832092,1.2815133333206177,0.015227539464831352
1764585667219299800,2.9802998046875,-1.2838935852050781,1.1492383480072021,0.20698924362659454
1764585667229254000,2.99025390625,-1.5847607851028442,1.0607672929763794,0.429309606552124
1764585667239207700,3.000207763671875,-1.7982523441314697,0.9903535842895508,0.6855584979057312
1764585667249161700,3.01016162109375,-2.004929542541504,0.999377965927124,0.9895398616790771
1764585667259115800,3.02011572265625,-2.251685619354248,1.0377572774887085,1.4034899473190308
1764585667269070800,3.03007080078125,-2.5831732749938965,1.4625487327575684,1.917209506034851
1764585667279025000,3.04002490234375,-2.974276542663574,2.012218475341797,2.4833083152770996
1764585667288978700,3.049978759765625,-3.4010167121887207,2.4800899028778076,3.0145275592803955
1764585667298932700,3.0599326171875,-3.867811918258667,2.843451499938965,3.4522314071655273
1764585667308886800,3.06988671875,-4.346229076385498,3.1420557498931885,3.7633769512176514
1764585667318840800,3.0798408203125,-4.813742160797119,3.368687391281128,3.9395885467529297
1764585667328794600,3.089794677734375,-5.268919944763184,3.4799137115478516,4.028464317321777
1764585667338750000,3.09975,-5.723126411437988,3.4733383655548096,4.050013065338135
1764585667348703700,3.109703857421875,-6.209282875061035,3.498211145401001,4.04752254486084
1764585667358657800,3.11965771484375,-6.649417400360107,3.442509174346924,4.007957935333252
1764585667368611800,3.12961181640625,-6.998984336853027,3.3500993251800537,3.853766918182373
1764585667378566000,3.13956591796875,-7.249857425689697,3.306206464767456,3.5646963119506836
1764585667388519700,3.149519775390625,-7.464542388916016,3.202755928039551,3.099635362625122
1764585667398474800,3.159474853515625,-7.645149230957031,3.1058719158172607,2.5108280181884766
1764585667408428800,3.1694287109375,-7.884006977081299,3.011133909225464,1.8362793922424316
1764585667418382800,3.1793828125,-8.173538208007812,2.8054661750793457,1.2193701267242432
1764585667428337000,3.1893369140625,-8.487322807312012,2.6350717544555664,0.8346461057662964
1764585667438291000,3.199291015625,-8.662690162658691,2.4264965057373047,0.7845049500465393
1764585667448244700,3.20924462890625,-8.685688018798828,2.144136905670166,1.0873982906341553
1764585667458199800,3.21919970703125,-8.675864219665527,1.8819881677627563,1.8352378606796265
1764585667468153600,3.229153564453125,-8.554930686950684,1.6269160509109497,2.892392635345459
1764585667478107600,3.239107666015625,-8.225362777709961,1.370667576789856,3.9456682205200195
1764585667488062000,3.24906201171875,-7.614437580108643,1.1463124752044678,4.755552768707275
1764585667498016000,3.25901611328125,-6.821075439453125,0.8780035376548767,5.190061092376709
1764585667507969800,3.2689697265625,-6.0102219581604,0.4785729646682739,5.320098400115967
1764585667517923800,3.278923828125,-5.117459297180176,-0.03753991052508354,5.200239658355713
1764585667527878700,3.288878662109375,-4.037029266357422,-0.7256248593330383,4.925268650054932
1764585667537832700,3.298832763671875,-2.7981221675872803,-1.5707616806030273,4.542096138000488
1764585667547786800,3.308786865234375,-1.4506855010986328,-2.2034451961517334,4.087713718414307
1764585667557740800,3.31874072265625,-0.015788443386554718,-2.648467779159546,3.566497802734375
1764585667567694800,3.32869482421875,1.3785240650177002,-3.071357011795044,2.827481746673584
1764585667577649000,3.33864892578125,2.420642375946045,-3.3434863090515137,1.8720645904541016
1764585667587603700,3.348603759765625,2.929915428161621,-3.2332890033721924,1.0739036798477173
1764585667597557800,3.358557861328125,3.1543736457824707,-2.881749153137207,0.5101023316383362
1764585667607511800,3.36851171875,2.88665509223938,-2.266979455947876,-0.25975897908210754
1764585667617465900,3.3784658203125,2.4411017894744873,-1.5065739154815674,-1.0524201393127441
1764585667627419600,3.388419677734375,2.063967227935791,-0.38455337285995483,-1.3571244478225708
1764585667637373700,3.398373779296875,1.9348255395889282,0.8693041801452637,-1.2677091360092163
1764585667647328800,3.408328857421875,1.771667718887329,1.9262168407440186,-0.9982674717903137
1764585667657282800,3.41828271484375,1.4150749444961548,2.693464756011963,-0.5789503455162048
1764585667667236900,3.42823681640625,1.2132606506347656,2.7098772525787354,-0.3570792078971863
1764585667677190700,3.438190673828125,0.8004088997840881,2.8134751319885254,-0.5105002522468567
1764585667687144700,3.448144775390625,0.7271406650543213,2.8682031631469727,-0.9184292554855347
1764585667697098800,3.4580986328125,0.5888147354125977,2.6378207206726074,-0.9867518544197083
1764585667707053800,3.4680537109375,0.3377821147441864,2.756209373474121,-1.138934850692749
1764585667717008000,3.4780078125,0.486947625875473,3.0036275386810303,-1.8309223651885986
1764585667726962000,3.4879619140625,0.936816930770874,2.7830774784088135,-2.1424479484558105
1764585667736915700,3.497915771484375,1.4064995050430298,2.306302070617676,-2.290802001953125
1764585667746869800,3.507869873046875,1.5624570846557617,2.2641232013702393,-2.6831154823303223
1764585667756823800,3.51782373046875,1.8100801706314087,2.458986282348633,-2.8310163021087646
1764585667766778600,3.527778564453125,1.5550252199172974,2.2536137104034424,-2.964708089828491
1764585667776733000,3.53773291015625,0.9702165722846985,2.602602243423462,-2.671489953994751
1764585667786687000,3.54768701171875,0.4547407627105713,2.060974597930908,-1.8542909622192383
1764585667796640800,3.557640869140625,-0.02396671660244465,2.282336950302124,-0.9480345845222473
1764585667806594800,3.5675947265625,-0.2265436202287674,1.9245015382766724,-0.019756980240345
1764585667816548900,3.577548828125,-0.14187000691890717,0.8064109086990356,0.6769219636917114
1764585667826504000,3.58750390625,-0.3171541690826416,-0.09461545944213867,0.9738631844520569
1764585667836458000,3.5974580078125,-0.5723318457603455,-0.4745851755142212,0.8562324047088623
1764585667846412000,3.607412109375,-0.7597697377204895,-0.4288169741630554,0.4372456967830658
1764585667856365800,3.61736572265625,-0.8310785293579102,-0.26501578092575073,-0.1443745642900467
1764585667866320000,3.62731982421875,-0.9402672648429871,0.29211103916168213,-0.7250397205352783
1764585667876274000,3.63727392578125,-1.1302613019943237,0.9190106391906738,-1.0157005786895752
1764585667886229000,3.64722900390625,-1.2335349321365356,1.1396394968032837,-1.007146954536438
1764585667896183000,3.65718310546875,-1.3459738492965698,1.152535319328308,-0.8635354042053223
1764585667906137000,3.66713720703125,-1.6153366565704346,1.0008591413497925,-0.6036168336868286
1764585667916091000,3.6770908203125,-2.045435667037964,0.9369859099388123,-0.33811643719673157
1764585667926045000,3.687044921875,-2.531292676925659,0.8589804172515869,-0.09154066443443298
1764585667935999700,3.696999755859375,-3.074324131011963,0.8165522813796997,0.07015236467123032
1764585667945953800,3.706953857421875,-3.692340612411499,0.7218741178512573,0.19949869811534882
1764585667955907800,3.716907958984375,-4.410974979400635,0.5463160872459412,0.34695446491241455
1764585667965862100,3.726862060546875,-5.2879414558410645,0.5196438431739807,0.5060139298439026
1764585667975816000,3.73681591796875,-6.232715606689453,1.0089330673217773,0.6947953104972839
1764585667985770000,3.74677001953125,-7.041133880615234,1.9296753406524658,1.0892829895019531
1764585667995724800,3.756724853515625,-7.512992858886719,3.209582567214966,1.423412799835205
1764585668005678800,3.766678955078125,-7.531238555908203,4.115101337432861,1.8613402843475342
1764585668015633000,3.7766328125,-7.1827287673950195,4.384251594543457,2.5226566791534424
1764585668025587000,3.7865869140625,-6.624700546264648,4.045292377471924,3.2706589698791504
1764585668035540700,3.796540771484375,-6.0179595947265625,3.2844841480255127,3.914189577102661
1764585668045495000,3.8064951171875,-5.35963249206543,2.6352198123931885,4.2419915199279785
1764585668055449900,3.816449951171875,-4.506187438964844,2.8158836364746094,3.722426414489746
1764585668065404000,3.82640380859375,-3.6913247108459473,2.5801150798797607,3.377178907394409
1764585668075358000,3.83635791015625,-2.8296849727630615,1.5561095476150513,2.6341185569763184
1764585668085312000,3.84631201171875,-1.7925869226455688,0.2619980573654175,1.418078899383545
1764585668095265800,3.856265869140625,-0.7397230267524719,0.09128677099943161,0.6401821374893188
1764585668105221000,3.86622119140625,-0.10012415051460266,-0.01540709100663662,-0.18206781148910522
1764585668115175000,3.8761748046875,0.16867695748806,0.08216314017772675,-0.839000403881073
1764585668125129000,3.88612890625,-0.15726681053638458,0.4459601640701294,-1.1957106590270996
1764585668135083000,3.8960830078125,-0.4925609230995178,0.4642603397369385,-1.207358717918396
1764585668145037000,3.906037109375,-0.7146371006965637,0.304811954498291,-0.9405540823936462
1764585668154990800,3.915990966796875,-0.8658607006072998,0.3471894860267639,-0.4940168261528015
1764585668164946000,3.92594580078125,-0.9083766341209412,0.637793779373169,-0.10528375953435898
1764585668174899700,3.935899658203125,-0.7886579632759094,0.7389212250709534,0.04337921738624573
1764585668184854000,3.94585400390625,-0.6733934879302979,0.5280776619911194,0.009319400414824486
1764585668194808000,3.95580810546875,-0.7106851935386658,0.13381953537464142,-0.053146108984947205
1764585668204761900,3.965761962890625,-1.0358316898345947,-0.2858658730983734,-0.10202191770076752
1764585668214717000,3.975717041015625,-2.001871347427368,-0.9001729488372803,0.04229637607932091
1764585668224671000,3.9856708984375,-2.4975476264953613,-1.190656304359436,0.16792768239974976
1764585668234624800,3.995624755859375,-2.596015453338623,-1.1455544233322144,0.1985124945640564
1764585668244578800,4.005578857421875,-2.547166585922241,-0.9574633836746216,0.1370861977338791
1764585668254532900,4.015532958984375,-2.4191231727600098,-0.8176064491271973,0.04821464419364929
1764585668264488000,4.025488037109375,-2.205164670944214,-0.6392530798912048,0.0183858722448349
1764585668274442000,4.03544189453125,-1.9511538743972778,-0.5478128790855408,0.014996200799942017
1764585668284396000,4.04539599609375,-1.7319079637527466,-0.5743448138237,0.02201991342008114
1764585668294349800,4.055349853515625,-1.5595811605453491,-0.8102082014083862,-0.0018052579835057259
1764585668304303900,4.065303955078125,-1.403694748878479,-1.0848556756973267,-0.015771202743053436
1764585668314258700,4.0752587890625,-1.1821727752685547,-1.1708203554153442,0.04213923588395119
1764585668324213000,4.085212890625,-0.9207192063331604,-1.1352602243423462,0.12712730467319489
1764585668334167000,4.0951669921875,-0.6751741766929626,-0.9431291818618774,0.23718483746051788
1764585668344121000,4.10512109375,-0.5030075311660767,-0.6397988200187683,0.3418806791305542
1764585668354075000,4.115074951171875,-0.4284054934978485,-0.5144360661506653,0.36421260237693787
1764585668364030000,4.125030029296875,-0.46009528636932373,-0.4677569270133972,0.3223966360092163
1764585668373983700,4.134983642578125,-0.7169023156166077,-0.4221462905406952,0.26681193709373474
1764585668383937800,4.144937744140625,-0.9973881244659424,-0.5208683013916016,0.15703994035720825
1764585668393891800,4.154891845703125,-1.086613655090332,-0.7574115991592407,-0.012248413637280464
1764585668403846100,4.16484619140625,-1.074450135231018,-0.8272795677185059,-0.11545577645301819
1764585668413800000,4.174800048828125,-1.0471642017364502,-0.9292293787002563,-0.18777817487716675
1764585668423755000,4.184755126953125,-1.0278172492980957,-0.9525917768478394,-0.15782848000526428
1764585668433708800,4.194708740234375,-1.0418723821640015,-0.9553590416908264,-0.05587628483772278
1764585668443662800,4.204662841796875,-1.0468868017196655,-1.1086002588272095,0.08417686074972153
1764585668453617000,4.214616943359375,-0.9414507150650024,-1.3235282897949219,0.2881435751914978
1764585668463571000,4.224571044921875,-0.7508310675621033,-1.7362060546875,0.6164190769195557
1764585668473526000,4.234526123046875,-1.1518911123275757,-1.2638245820999146,0.3496994972229004
1764585668483480000,4.24447998046875,-0.9877988696098328,-0.5217556953430176,-0.12351477146148682
1764585668493433900,4.254433837890625,-0.8900582194328308,-0.026691336184740067,-0.3546994924545288
1764585668503388000,4.264387939453125,-0.8719726204872131,0.16679292917251587,-0.28313323855400085
1764585668513342000,4.274342041015625,-0.7606881260871887,0.2905907928943634,-0.10072960704565048
1764585668523296800,4.284296875,-0.5081275105476379,0.3740304112434387,0.06550350040197372
1764585668533250800,4.294250732421875,-0.2536453902721405,0.2965207099914551,0.1496860384941101
1764585668543205000,4.304205078125,-0.05428071692585945,0.050421785563230515,0.12777598202228546
1764585668553159000,4.314158935546875,0.017109841108322144,-0.3474014699459076,0.0968172699213028
1764585668563113000,4.324113037109375,0.013133611530065536,-0.6486856341362,0.07425129413604736
1764585668573067800,4.33406787109375,0.03359760716557503,-0.8832291960716248,0.09267663955688477
1764585668583021800,4.344021728515625,0.10183365643024445,-1.284842610359192,0.13808301091194153
1764585668592976000,4.353975830078125,0.2100543975830078,-1.7752032279968262,0.17352941632270813
1764585668602930000,4.363929931640625,0.3230050206184387,-2.184877634048462,0.17540545761585236
1764585668612884000,4.373884033203125,0.34965288639068604,-2.5793983936309814,0.21569721400737762
1764585668622839000,4.383839111328125,0.27005061507225037,-2.794110059738159,0.3448653817176819
1764585668632792800,4.393792724609375,0.1322661191225052,-2.4465432167053223,0.5371086001396179
1764585668642747000,4.403746826171875,-0.03869131579995155,-1.5377399921417236,0.7192814946174622
1764585668652701000,4.413700927734375,-0.1790228635072708,-0.46257317066192627,0.7572299242019653
1764585668662655700,4.42365576171875,-0.21067750453948975,0.5952283143997192,0.6099636554718018
1764585668672610000,4.433610107421875,-0.1989651918411255,1.4752283096313477,0.3323666751384735
1764585668682564000,4.443564208984375,-0.11194036900997162,2.038701295852661,0.08451735973358154
1764585668692518000,4.453517822265625,0.03380937501788139,2.83699107170105,0.032884519547224045
1764585668702472000,4.463471923828125,0.38199400901794434,3.029953956604004,0.16063103079795837
1764585668712427000,4.473427001953125,0.6355048418045044,2.5622189044952393,0.1391369253396988
1764585668722380800,4.483380859375,0.7716036438941956,2.1504340171813965,0.1804845780134201
1764585668732334800,4.4933349609375,0.9161251783370972,1.5102297067642212,0.19447043538093567
1764585668742289000,4.503288818359375,0.9938595294952393,0.7124809622764587,0.2198765128850937
1764585668752243000,4.513242919921875,0.9630518555641174,-0.10010861605405807,0.29627886414527893
1764585668762198000,4.523197998046875,0.9992791414260864,-0.781676709651947,0.36111319065093994
1764585668772152000,4.533152099609375,1.0560067892074585,-1.2022689580917358,0.4125382900238037
1764585668782105900,4.54310595703125,1.0705668926239014,-1.413935899734497,0.42355239391326904
1764585668792060000,4.553059814453125,0.9881533980369568,-1.4543792009353638,0.36433035135269165
1764585668802014000,4.563013916015625,0.8934722542762756,-1.2464760541915894,0.23295630514621735
1764585668811969000,4.572968994140625,0.7653912305831909,-0.9843083620071411,0.08174548298120499
1764585668821923000,4.582923095703125,0.5465111136436462,-0.7243773937225342,-0.029381413012742996
1764585668831877000,4.592877197265625,0.31443148851394653,-0.49497726559638977,-0.073842354118824
1764585668841831000,4.602830810546875,0.1407548189163208,-0.34849780797958374,-0.05003821849822998
1764585668851785000,4.612784912109375,-0.016019359230995178,-0.20541416108608246,0.012264569289982319
1764585668861739800,4.62273974609375,-0.038817018270492554,-0.050657764077186584,0.08052150160074234
1764585668871693800,4.63269384765625,-0.006188767962157726,0.0502009391784668,0.13595600426197052
1764585668881647900,4.64264794921875,0.011324113234877586,0.10892301052808762,0.1795257329940796
1764585668891602000,4.652601806640625,0.02844131737947464,0.11238804459571838,0.20787082612514496
1764585668901556000,4.662555908203125,0.048466600477695465,0.12593084573745728,0.19870224595069885
1764585668911511000,4.672510986328125,0.08033052831888199,0.15269294381141663,0.1820359081029892
1764585668921464800,4.68246484375,0.12490744143724442,0.13743653893470764,0.14548131823539734
1764585668931419000,4.6924189453125,0.2178964912891388,0.06728539615869522,0.09694254398345947
1764585668941373000,4.702373046875,0.38681459426879883,-0.23143166303634644,0.15324608981609344
1764585668951328000,4.712327880859375,0.4330635666847229,-1.1606085300445557,0.5056544542312622
1764585668961282000,4.722281982421875,0.36821722984313965,-2.3513236045837402,1.057403564453125
1764585668971236000,4.732236083984375,0.3382588028907776,-2.8059542179107666,1.355542778968811
1764585668981190000,4.74218994140625,0.31168848276138306,-2.1392884254455566,1.1192656755447388
1764585668991144000,4.75214404296875,0.2963750660419464,-1.1254595518112183,0.6214771866798401
1764585669001098800,4.7620986328125,0.24167564511299133,-0.30378347635269165,0.12086369097232819
1764585669011052800,4.772052734375,0.15057849884033203,0.15272095799446106,-0.15173427760601044
1764585669021006800,4.7820068359375,0.1260080337524414,0.32360899448394775,-0.24503417313098907
1764585669030961200,4.791961181640625,0.0655585378408432,0.4138648509979248,-0.22477683424949646
1764585669040915000,4.8019150390625,0.0020488263107836246,0.4913580119609833,-0.18456487357616425
1764585669050870000,4.8118701171875,-0.036954768002033234,0.5944130420684814,-0.16569983959197998
1764585669060823800,4.82182373046875,-0.06262146681547165,0.6281875371932983,-0.13322913646697998
1764585669070777900,4.83177783203125,-0.07768164575099945,0.6169630885124207,-0.09889566898345947
1764585669080732000,4.84173193359375,-0.07334920018911362,0.5795812606811523,-0.09214242547750473
1764585669090686000,4.85168603515625,-0.08434485644102097,0.46646004915237427,-0.05332205817103386
1764585669100641000,4.86164111328125,-0.10147959738969803,0.2969551980495453,0.03556770458817482
1764585669110595000,4.871594970703125,-0.13934655487537384,0.08011555671691895,0.12839964032173157
1764585669120548900,4.881548828125,-0.19355763494968414,-0.14821359515190125,0.20334593951702118
1764585669130503000,4.8915029296875,-0.24923446774482727,-0.3016737103462219,0.25382643938064575
1764585669140458000,4.9014580078125,-0.3272404968738556,-0.36859893798828125,0.30597826838493347
1764585669150411800,4.911411865234375,-0.415710985660553,-0.3979980945587158,0.3726028501987457
1764585669160365800,4.92136572265625,-0.5101379156112671,-0.4071916341781616,0.44259965419769287
1764585669170320100,4.931320068359375,-0.6214380860328674,-0.35415026545524597,0.482448548078537
1764585669180274000,4.94127392578125,-0.7596332430839539,-0.2791920006275177,0.544643223285675
1764585669190229000,4.95122900390625,-0.8528276085853577,-0.19591309130191803,0.5470229983329773
1764585669200183000,4.96118310546875,-0.9593337774276733,-0.12291286885738373,0.5309028029441833
1764585669210136800,4.97113671875,-0.9915305972099304,0.007738878484815359,0.4466175138950348
1764585669220091000,4.9810908203125,-1.0951392650604248,0.05180175602436066,0.42203786969184875
1764585669230045000,4.991044921875,-1.096238136291504,0.0260029137134552,0.4690631628036499
1764585669240000000,5.001,-1.0585837364196777,-0.042218245565891266,0.47472962737083435
1764585669249954000,5.0109541015625,-0.9635205864906311,-0.04465796798467636,0.4207098186016083
1764585669259907800,5.020907958984375,-0.8335381746292114,0.10523081570863724,0.29280543327331543
1764585669269862000,5.03086181640625,-0.7135512828826904,0.09548897296190262,0.17253254354000092
1764585669279817000,5.04081689453125,-0.47871795296669006,0.03889751061797142,-0.020504988729953766
1764585669289770800,5.050770751953125,-0.2474709153175354,0.016304584220051765,-0.22997325658798218
1764585669299724800,5.060724853515625,-0.07480238378047943,0.022723207250237465,-0.42016908526420593
1764585669309679000,5.07067919921875,-0.048764917999506,0.0837295725941658,-0.5107756853103638
1764585669319633000,5.0806328125,-0.004131571389734745,0.1987922042608261,-0.5414606928825378
1764585669329588000,5.090587890625,-0.019646883010864258,0.23756197094917297,-0.5152474641799927
1764585669339542000,5.1005419921875,-0.043265100568532944,0.2055501639842987,-0.4705267548561096
1764585669349495800,5.110495849609375,-0.08699607104063034,0.2329666167497635,-0.40471363067626953
1764585669359449900,5.120449951171875,-0.09772300720214844,0.31060007214546204,-0.3503958284854889
1764585669369404000,5.13040380859375,-0.049678511917591095,0.41947141289711,-0.3321734070777893
1764585669379359000,5.14035888671875,0.009257802739739418,0.5298194885253906,-0.32993873953819275
1764585669389313000,5.15031298828125,0.06583186984062195,0.5984312891960144,-0.33276140689849854
1764585669399267000,5.16026708984375,0.11805956810712814,0.5842964053153992,-0.3220740258693695
1764585669409220900,5.170220947265625,0.11433540284633636,0.46813786029815674,-0.29181596636772156
1764585669419176000,5.180176025390625,0.10572288930416107,0.26962515711784363,-0.2016972005367279
1764585669429129700,5.190129638671875,0.09128642827272415,0.04668501764535904,-0.0978323221206665
1764585669439083800,5.200083740234375,0.011370868422091007,-0.14535896480083466,-0.0025483034551143646
1764585669449038000,5.2100380859375,-0.1316470056772232,-0.2919643819332123,0.0648038387298584
1764585669458992000,5.2199921875,-0.25590673089027405,-0.3481142520904541,0.05304257199168205
1764585669468947000,5.229947021484375,-0.26888805627822876,-0.3073239326477051,-0.032558880746364594
1764585669478901000,5.23990087890625,-0.19864991307258606,-0.16508930921554565,-0.15838561952114105
1764585669488854800,5.249854736328125,-0.011336208321154118,-0.08415105193853378,-0.3248260021209717
1764585669498808800,5.259808837890625,0.05939041078090668,0.03398380056023598,-0.4738488793373108
1764585669508764000,5.269763916015625,-0.0037526036612689495,-0.0101596899330616,-0.43938836455345154
1764585669518718000,5.279718017578125,-0.07501213997602463,-0.13374286890029907,-0.4102243483066559
1764585669528672000,5.289672119140625,-0.0021437881514430046,0.19587843120098114,-0.47242435812950134
1764585669538626000,5.2996259765625,0.08577563613653183,0.4625376760959625,-0.5186264514923096
1764585669548579800,5.309579833984375,0.08873414248228073,0.44538557529449463,-0.42785874009132385
1764585669558535000,5.319534912109375,0.08846547454595566,0.32375940680503845,-0.27895501255989075
1764585669568489000,5.329489013671875,0.18546339869499207,0.29463374614715576,-0.18079249560832977
1764585669578442800,5.33944287109375,0.11342897266149521,0.17353801429271698,-0.17629793286323547
1764585669588397000,5.34939697265625,-0.03380762040615082,-0.0015200842171907425,-0.20449575781822205
1764585669598352000,5.359351806640625,-0.01889675483107567,0.10431850701570511,-0.22419734299182892
1764585669608306000,5.369305908203125,0.14376060664653778,0.2852765619754791,-0.23513787984848022
1764585669618260000,5.379260009765625,0.2683326005935669,0.23917725682258606,-0.21108821034431458
1764585669628213800,5.3892138671875,0.3805864453315735,0.10707034915685654,-0.196918323636055
1764585669638167800,5.399167724609375,0.49296289682388306,0.07209762930870056,-0.20497533679008484
1764585669648123100,5.409123046875,0.6434680223464966,0.12494566291570663,-0.24339435994625092
1764585669658077000,5.419076904296875,0.8011274337768555,0.24719378352165222,-0.3321506679058075
1764585669668031000,5.429031005859375,0.9411418437957764,0.39071446657180786,-0.43833810091018677
1764585669677985000,5.438985107421875,1.0705512762069702,0.48665720224380493,-0.5211634039878845
1764585669687938800,5.448938720703125,1.2015972137451172,0.5002233386039734,-0.5623385310173035
1764585669697894000,5.458893798828125,1.2570559978485107,0.42259812355041504,-0.5481096506118774
1764585669707848000,5.468847900390625,1.1898468732833862,0.27354419231414795,-0.4532720744609833
1764585669717801700,5.4788017578125,1.0310957431793213,0.08184703439474106,-0.25048279762268066
1764585669727756000,5.488756103515625,0.816918134689331,-0.2132655680179596,0.06857109069824219
1764585669737710800,5.4987109375,0.5587338805198669,-0.5989099740982056,0.40889689326286316
1764585669747665000,5.508664794921875,0.33007702231407166,-0.8963735699653625,0.5984231233596802
1764585669757619000,5.518618896484375,0.16558223962783813,-0.7576310038566589,0.5730459094047546
1764585669767573000,5.528572998046875,0.07423049211502075,-0.3592018783092499,0.40657463669776917
1764585669777527600,5.538527587890625,0.04187473654747009,0.08544076979160309,0.20592661201953888
1764585669787481600,5.548481689453125,0.06816732883453369,0.39558959007263184,0.06978900730609894
1764585669797435600,5.558435546875,0.11565298587083817,0.49212709069252014,0.035597000271081924
1764585669807389400,5.568389404296875,0.148567795753479,0.48474669456481934,0.05748924985527992
1764585669817343500,5.578343505859375,0.16946876049041748,0.4479818046092987,0.10274450480937958
1764585669827298600,5.588298583984375,0.157364159822464,0.38761192560195923,0.1398753672838211
1764585669837252600,5.598252685546875,0.1484508067369461,0.3000023663043976,0.18172694742679596
1764585669847206700,5.60820654296875,0.15633589029312134,0.20319166779518127,0.20504984259605408
1764585669857160400,5.618160400390625,0.1772661805152893,0.09940408915281296,0.21798178553581238
1764585669867114500,5.628114501953125,0.19699035584926605,0.01520558726042509,0.21906888484954834
1764585669877069800,5.63806982421875,0.21588818728923798,-0.0603938102722168,0.22732612490653992
1764585669887023600,5.648023681640625,0.24042974412441254,-0.09419385343790054,0.23732149600982666
1764585669896977700,5.657977783203125,0.26968663930892944,-0.0773608610033989,0.24683617055416107
1764585669906931700,5.667931640625,0.2905261516571045,0.04181958734989166,0.2369646281003952
1764585669916886500,5.677886474609375,0.30131861567497253,0.18629354238510132,0.23401667177677155
1764585669926840600,5.687840576171875,0.2915445566177368,0.28352686762809753,0.24518223106861115
1764585669936794600,5.697794677734375,0.25787433981895447,0.35891029238700867,0.2714996337890625
1764585669946748400,5.70774853515625,0.2000477910041809,0.40160128474235535,0.3023238778114319
1764585669956702700,5.71770263671875,0.14715324342250824,0.35441651940345764,0.3225308060646057
1764585669966657500,5.727657470703125,0.10017215460538864,0.23566856980323792,0.31544229388237
1764585669976611600,5.737611572265625,0.073157399892807,0.1039983332157135,0.2818620502948761
1764585669986565600,5.747565673828125,0.06524062156677246,-0.011658761650323868,0.2131948620080948
1764585669996519700,5.757519775390625,0.06961556524038315,-0.07647312432527542,0.11743402481079102
1764585670006474500,5.767474609375,0.06785255670547485,-0.08274753391742706,0.03449626266956329
1764585670016428800,5.7774287109375,0.09265642613172531,-0.040822625160217285,-0.02178804762661457
1764585670026382600,5.787382568359375,0.11817163974046707,-0.041495874524116516,-0.04220250993967056
1764585670036336600,5.797336669921875,0.1239212229847908,-0.08354917913675308,-0.03592229261994362
1764585670046290700,5.807290771484375,0.11650750786066055,-0.08969442546367645,-0.002884713001549244
1764585670056245500,5.81724560546875,0.10661767423152924,-0.04406248405575752,0.01903240755200386
1764585670066199600,5.827199462890625,0.10415664315223694,0.03235425800085068,0.02709539234638214
1764585670076153600,5.837153564453125,0.09988372027873993,0.0809660330414772,0.021572476252913475
1764585670086107400,5.847107421875,0.0992693305015564,0.08717066794633865,0.011842349544167519
1764585670096062700,5.857062744140625,0.0955813080072403,0.08024697005748749,0.002276437822729349
1764585670106016500,5.8670166015625,0.10268635302782059,0.04763976112008095,-0.008812432177364826
1764585670115970600,5.876970458984375,0.11191901564598083,0.007051760330796242,-0.022734642028808594
1764585670125924600,5.886924560546875,0.12332293391227722,-0.01962192915380001,-0.04080924764275551
1764585670135878700,5.896878662109375,0.12969200313091278,-0.027657724916934967,-0.05739786475896835
1764585670145833500,5.90683349609375,0.1405331939458847,-0.04704953357577324,-0.06343898177146912
1764585670155787800,5.916787841796875,0.13682930171489716,-0.09514068067073822,-0.05629174783825874
1764585670165741600,5.926741455078125,0.13100869953632355,-0.1492963284254074,-0.03610285744071007
1764585670175695600,5.936695556640625,0.12155880779027939,-0.1829596608877182,-0.02110728994011879
1764585670185650700,5.946650634765625,0.11572221666574478,-0.20171549916267395,-0.012491164728999138
1764585670195604500,5.9566044921875,0.10679598152637482,-0.209267720580101,-0.0027684411033988
1764585670205558500,5.96655859375,0.09504052251577377,-0.21359242498874664,0.005574709735810757
1764585670215512600,5.9765126953125,0.0921500101685524,-0.2100791335105896,0.010513226501643658
1764585670225466400,5.98646630859375,0.0878484770655632,-0.20682688057422638,0.0101616894826293
1764585670235421700,5.996421630859375,0.08679340779781342,-0.19408071041107178,0.0037718028761446476
1764585670245375700,6.006375732421875,0.08266710489988327,-0.1876630336046219,-0.007060072384774685
1764585670255329500,6.01632958984375,0.08591745793819427,-0.20337939262390137,-0.014905739575624466
1764585670265283600,6.02628369140625,0.07887393236160278,-0.22399145364761353,-0.021839279681444168
1764585670275238400,6.03623828125,0.07439883798360825,-0.2452770471572876,-0.022296708077192307
1764585670285192400,6.0461923828125,0.06113895773887634,-0.26459985971450806,-0.010361751541495323
1764585670295146800,6.056146728515625,0.04923271760344505,-0.28372859954833984,0.0023507396690547466
1764585670305100800,6.066100830078125,0.031618304550647736,-0.2721606194972992,0.01798083260655403
1764585670315054600,6.0760546875,0.017448468133807182,-0.24864354729652405,0.04181330278515816
1764585670325009700,6.086009765625,0.008919695392251015,-0.22559309005737305,0.06810855865478516
1764585670334963500,6.09596337890625,0.00003410200588405132,-0.19419412314891815,0.08738728612661362
1764585670344917500,6.10591748046875,-0.014498502016067505,-0.1713026463985443,0.09458234906196594
1764585670354871600,6.11587158203125,-0.02418060228228569,-0.1509314328432083,0.09839503467082977
1764585670364826600,6.12582666015625,-0.026435766369104385,-0.12318794429302216,0.09943579137325287
1764585670374780700,6.13578076171875,-0.026200998574495316,-0.09970315545797348,0.10936518013477325
1764585670384734700,6.145734619140625,-0.029340066015720367,-0.07924928516149521,0.11831872910261154
1764585670394688500,6.1556884765625,-0.0317133404314518,-0.04584678262472153,0.1339249163866043
1764585670404642600,6.165642578125,-0.0397275909781456,-0.024781977757811546,0.1492311656475067
1764585670414597600,6.17559765625,-0.04948458448052406,-0.010420368984341621,0.15899032354354858
1764585670424551400,6.185551513671875,-0.05313284695148468,-0.0058133662678301334,0.15601316094398499
1764585670434505700,6.195505615234375,-0.06658638268709183,-0.002004802692681551,0.14576494693756104
1764585670444459800,6.205459716796875,-0.07324907928705215,-0.0026918980292975903,0.13601644337177277
1764585670454414600,6.21541455078125,-0.07472031563520432,-0.0273267924785614,0.12782834470272064
1764585670464368600,6.22536865234375,-0.06495317816734314,-0.036255571991205215,0.12296594679355621
1764585670474322400,6.235322509765625,-0.04868708923459053,-0.03442905843257904,0.10605257749557495
1764585670484276500,6.2452763671875,-0.02966838702559471,-0.01751904934644699,0.08676969259977341
1764585670494230500,6.25523046875,-0.007417590357363224,0.013112271204590797,0.06718385219573975
1764585670504185600,6.265185546875,0.01116887666285038,0.039503131061792374,0.04558375105261803
1764585670514139600,6.2751396484375,0.041628893464803696,0.04893111065030098,0.030634041875600815
1764585670524093700,6.28509375,0.057748474180698395,0.030422938987612724,0.018310796469449997
1764585670534047500,6.295047607421875,0.057513438165187836,0.00985657423734665,0.012996780686080456
1764585670544002600,6.30500244140625,0.04351533204317093,0.007716725114732981,0.005818229168653488
1764585670553956600,6.31495654296875,0.03918487951159477,0.0040779029950499535,0.005393667612224817
1764585670563910400,6.324910400390625,0.04198092967271805,-0.010587592609226704,0.003111605066806078
1764585670573864700,6.33486474609375,0.05597779527306557,-0.02411094680428505,-0.01685507409274578
1764585670583818800,6.34481884765625,0.06645413488149643,-0.04113706946372986,-0.04643746837973595
1764585670593773600,6.354773681640625,0.08483415096998215,-0.061826564371585846,-0.07621438056230545
1764585670603727600,6.3647275390625,0.10080725699663162,-0.07746890932321548,-0.09682990610599518
1764585670613681700,6.374681640625,0.113002710044384,-0.10189623385667801,-0.09902120381593704
1764585670623635500,6.384635498046875,0.11563577502965927,-0.13553887605667114,-0.08236446231603622
1764585670633590800,6.3945908203125,0.11643576622009277,-0.1678759902715683,-0.06149604171514511
1764585670643544600,6.404544677734375,0.11306021362543106,-0.1912958323955536,-0.0529363751411438
1764585670653498600,6.41449853515625,0.10550101846456528,-0.18814519047737122,-0.05203964188694954
1764585670663452700,6.42445263671875,0.09168267250061035,-0.17857246100902557,-0.05376590043306351
1764585670673406700,6.43440673828125,0.06808560341596603,-0.16196145117282867,-0.04858412966132164
1764585670683361500,6.444361572265625,0.05806945264339447,-0.12158206850290298,-0.023103538900613785
1764585670693315600,6.454315673828125,0.05297602713108063,-0.07927928864955902,0.00895938090980053
1764585670703269400,6.464269287109375,0.045430220663547516,-0.047157563269138336,0.03208280727267265
1764585670713223700,6.4742236328125,0.03638780117034912,-0.01806359551846981,0.03767874464392662
1764585670723178800,6.4841787109375,0.025128493085503578,-0.001729629235342145,0.03428374603390694
1764585670733132500,6.494132568359375,0.021180832758545876,0.00685194693505764,0.02899593487381935
1764585670743086600,6.504086669921875,0.014276854693889618,-0.0004504402168095112,0.024393994361162186
1764585670753040600,6.51404052734375,0.009055405855178833,-0.009117892012000084,0.02162100374698639
1764585670762994400,6.523994384765625,0.011667700484395027,-0.014046071097254753,0.013479187153279781
1764585670772949800,6.53394970703125,0.01806594431400299,-0.018338555470108986,0.003081939183175564
1764585670782903600,6.543903564453125,0.02565009333193302,-0.018890362232923508,-0.00912918709218502
1764585670792857600,6.553857666015625,0.033407650887966156,-0.009690756909549236,-0.011608326807618141
1764585670802811600,6.563811767578125,0.045617710798978806,-0.016892477869987488,-0.010391795076429844
1764585670812766700,6.5737666015625,0.04846084490418434,-0.029253199696540833,-0.003659963607788086
1764585670822720800,6.583720703125,0.042820535600185394,-0.0357542410492897,-0.008310908451676369
1764585670832674800,6.5936748046875,0.0398763008415699,-0.05161987990140915,-0.016149602830410004
1764585670842628600,6.603628662109375,0.03836362436413765,-0.07029663026332855,-0.028858739882707596
1764585670852582700,6.613582763671875,0.04019470140337944,-0.09053677320480347,-0.04160990193486214
1764585670862537700,6.623537841796875,0.049310434609651566,-0.10713998228311539,-0.04350873455405235
1764585670872491500,6.633491455078125,0.050880562514066696,-0.10796371102333069,-0.03783044591546059
1764585670882445600,6.643445556640625,0.05314025282859802,-0.09814543277025223,-0.026309877634048462
1764585670892399900,6.65339990234375,0.052174534648656845,-0.09572601318359375,-0.0072261495515704155
1764585670902354700,6.663354736328125,0.04136290028691292,-0.09489670395851135,0.001117001287639141
1764585670912308700,6.673308837890625,0.038735225796699524,-0.07425536960363388,0.0019784830510616302
1764585670922262800,6.6832626953125,0.03623558208346367,-0.04824880510568619,-0.0030953711830079556
1764585670932216600,6.693216552734375,0.03471798822283745,-0.03350810706615448,0.0038724676705896854
1764585670942170600,6.703170654296875,0.03322422131896019,-0.03692946955561638,0.019973939284682274
1764585670952125700,6.713125732421875,0.029892876744270325,-0.027175238355994225,0.03817595914006233
1764585670962079700,6.723079833984375,0.030543219298124313,0.0035062411334365606,0.043723322451114655
1764585670972033800,6.73303369140625,0.03338473290205002,0.018244566395878792,0.04335212707519531
1764585670981987800,6.74298779296875,0.03639410436153412,0.015909506008028984,0.04015659913420677
1764585670991942700,6.752942626953125,0.034024424850940704,0.012926232069730759,0.03628116846084595
1764585671001896700,6.762896728515625,0.03502657264471054,0.013934239745140076,0.035606056451797485
1764585671011850500,6.7728505859375,0.03304575756192207,0.01220800168812275,0.03639952093362808
1764585671021804500,6.782804443359375,0.03157196566462517,0.021440913900732994,0.040985751897096634
1764585671031758800,6.7927587890625,0.03804050385951996,0.018753880634903908,0.04182278364896774
1764585671041713700,6.802713623046875,0.03224227577447891,0.019699567928910255,0.03366552293300629
1764585671051667700,6.812667724609375,0.0421907864511013,0.019937293604016304,0.014973059296607971
1764585671061621800,6.822621826171875,0.06635018438100815,0.0062361289747059345,-0.0039947740733623505
1764585671071575600,6.832575439453125,0.08278980106115341,-0.011845406144857407,-0.02187986671924591
1764585671081530600,6.842530517578125,0.08915182948112488,-0.030302712693810463,-0.041461292654275894
1764585671091484700,6.852484619140625,0.08575835078954697,-0.019030490890145302,-0.052947189658880234
1764585671101438700,6.862438720703125,0.08906413614749908,0.006353163160383701,-0.05902452394366264
1764585671111392800,6.872392822265625,0.08079677075147629,0.030049582943320274,-0.05303928256034851
1764585671121346800,6.882346923828125,0.061169542372226715,0.05752408504486084,-0.042655881494283676
1764585671131301600,6.892301513671875,0.043106917291879654,0.07016797363758087,-0.012871356680989265
1764585671141255700,6.902255615234375,0.05230440944433212,0.053705111145973206,0.023840319365262985
1764585671151209500,6.91220947265625,0.07291938364505768,0.032035160809755325,0.05311672016978264
1764585671161163500,6.92216357421875,0.09803619235754013,0.03478087857365608,0.06765811145305634
1764585671171118800,6.932118896484375,0.11699695140123367,0.05730032920837402,0.05919292941689491
1764585671181072600,6.94207275390625,0.1213778480887413,0.05811525508761406,0.0344977043569088
1764585671191026700,6.952026611328125,0.12424615025520325,0.026677580550312996,0.0097196064889431
1764585671200980700,6.961980712890625,0.11689449846744537,-0.031038444489240646,-0.01807207614183426
1764585671210934500,6.9719345703125,0.10696380585432053,-0.10001257807016373,-0.03663814812898636
1764585671220889600,6.9818896484375,0.10351154953241348,-0.16604138910770416,-0.059724025428295135
1764585671230844000,6.991843994140625,0.1051015853881836,-0.1947881579399109,-0.0854552835226059
1764585671240797700,7.001797607421875,0.11451346427202225,-0.20180079340934753,-0.10243985056877136
1764585671250751700,7.011751708984375,0.11846829950809479,-0.2128707319498062,-0.10763610899448395
1764585671260706600,7.02170654296875,0.12668415904045105,-0.2432675063610077,-0.09282653778791428
1764585671270660600,7.03166064453125,0.1303572654724121,-0.25807198882102966,-0.06174137070775032
1764585671280614700,7.04161474609375,0.1359909176826477,-0.26755231618881226,-0.023304499685764313
1764585671290568700,7.051568603515625,0.14617981016635895,-0.29073816537857056,0.014485010877251625
1764585671300522500,7.0615224609375,0.16109377145767212,-0.31157341599464417,0.04659740626811981
1764585671310477800,7.071477783203125,0.16985897719860077,-0.2927626073360443,0.061685703694820404
1764585671320431600,7.081431640625,0.15775038301944733,-0.2242877036333084,0.06569802761077881
1764585671330385700,7.0913857421875,0.13073097169399261,-0.1318344920873642,0.07542484998703003
1764585671340339700,7.101339599609375,0.08966130018234253,-0.04839392378926277,0.08926662802696228
1764585671350294500,7.11129443359375,0.04879829287528992,-0.0017316148150712252,0.09742362052202225
1764585671360248600,7.12124853515625,0.02865414135158062,-0.01565568707883358,0.1208791434764862
1764585671370203000,7.131202880859375,0.03513079136610031,-0.046597499400377274,0.14018939435482025
1764585671380156700,7.14115673828125,0.04277672618627548,-0.055930815637111664,0.1414269655942917
1764585671390110700,7.15111083984375,0.04307100921869278,-0.05986456945538521,0.13014155626296997
1764585671400065500,7.1610654296875,0.045979179441928864,-0.08274112641811371,0.11458258330821991
1764585671410019600,7.17101953125,0.04079442843794823,-0.1298762708902359,0.10046495497226715
1764585671419973600,7.1809736328125,0.04369913786649704,-0.18833398818969727,0.09576687216758728
1764585671429927700,7.190927734375,0.04906265065073967,-0.22442424297332764,0.0938868448138237
1764585671439882800,7.2008828125,0.05013643950223923,-0.2282695770263672,0.09112115204334259
1764585671449836800,7.2108369140625,0.05114911496639252,-0.21713055670261383,0.08722434937953949
1764585671459790600,7.22079052734375,0.06177699565887451,-0.21206627786159515,0.08764779567718506
1764585671469744600,7.23074462890625,0.06840523332357407,-0.24273812770843506,0.10865726321935654
1764585671479698700,7.24069873046875,0.06992696970701218,-0.2676258981227875,0.12644290924072266
1764585671489653500,7.250653564453125,0.08399404585361481,-0.30574825406074524,0.14046525955200195
1764585671499607600,7.260607666015625,0.10539521276950836,-0.3199141323566437,0.1463247388601303
1764585671509561900,7.270561767578125,0.1253240704536438,-0.3136495351791382,0.1360926628112793
1764585671519515600,7.280515625,0.14718011021614075,-0.2983512580394745,0.12640754878520966
1764585671529470700,7.290470703125,0.1649695634841919,-0.268070250749588,0.11699364334344864
1764585671539424800,7.3004248046875,0.18329769372940063,-0.24477022886276245,0.11343033611774445
1764585671549378600,7.310378662109375,0.19549964368343353,-0.23212210834026337,0.125404492020607
1764585671559332600,7.32033251953125,0.18853574991226196,-0.2449638694524765,0.1377817988395691
1764585671569286700,7.33028662109375,0.15498922765254974,-0.25486311316490173,0.15800531208515167
1764585671579241700,7.34024169921875,0.12419458478689194,-0.268515020608902,0.17433394491672516
1764585671589195800,7.35019580078125,0.09827785938978195,-0.26490458846092224,0.17471154034137726
1764585671599149800,7.36014990234375,0.08505979180335999,-0.2420158088207245,0.16247431933879852
1764585671609103600,7.370103515625,0.08720927685499191,-0.20742344856262207,0.14467865228652954
1764585671619058700,7.38005859375,0.0971607118844986,-0.17396987974643707,0.13676214218139648
1764585671629012500,7.390012451171875,0.11113788932561874,-0.13771562278270721,0.14018237590789795
1764585671638966500,7.399966552734375,0.1294918656349182,-0.11000196635723114,0.14710766077041626
1764585671648920800,7.4099208984375,0.14520476758480072,-0.07102756947278976,0.1683136224746704
1764585671658875600,7.419875732421875,0.16359175741672516,-0.03358566388487816,0.19747816026210785
1764585671668829700,7.42982958984375,0.19094233214855194,-0.0071295988745987415,0.2276875078678131
1764585671678783700,7.43978369140625,0.21525193750858307,0.01786336861550808,0.23866772651672363
1764585671688737500,7.449737548828125,0.22945420444011688,0.047377198934555054,0.23441550135612488
1764585671698691600,7.459691650390625,0.23832066357135773,0.075952909886837,0.21126730740070343
1764585671708646700,7.469646728515625,0.24112550914287567,0.10361095517873764,0.16996127367019653
1764585671718600700,7.4796005859375,0.2258882373571396,0.11536215245723724,0.12036389112472534
1764585671728554800,7.4895546875,0.19685639441013336,0.09926910698413849,0.08467922359704971
1764585671738508800,7.4995087890625,0.16702580451965332,0.05644840747117996,0.057787153869867325
1764585671748462600,7.509462646484375,0.11582355201244354,0.02255655825138092,0.03096715360879898
1764585671758417700,7.519417724609375,0.065767303109169,-0.0051919808611273766,0.01580577716231346
1764585671768371500,7.529371337890625,0.03991791233420372,-0.060817278921604156,0.02439766190946102
1764585671778325000,7.539324951171875,0.044884972274303436,-0.13555409014225006,0.06459514796733856
1764585671788279000,7.549279052734375,0.04869772121310234,-0.19002407789230347,0.10849672555923462
1764585671798234000,7.559234130859375,0.0644010528922081,-0.2019614428281784,0.1521262228488922
1764585671808188000,7.56918798828125,0.08268290758132935,-0.20357564091682434,0.18886171281337738
1764585671818142000,7.579141845703125,0.10804525762796402,-0.21382375061511993,0.21827977895736694
1764585671828096300,7.58909619140625,0.1450434774160385,-0.23175019025802612,0.23276099562644958
1764585671838051000,7.599051025390625,0.17366500198841095,-0.25281500816345215,0.226287379860878
1764585671848005000,7.609005126953125,0.1966933310031891,-0.28010275959968567,0.21186332404613495
1764585671857959000,7.618958984375,0.22466078400611877,-0.2949802279472351,0.18367962539196014
1764585671867913000,7.628912841796875,0.2426249384880066,-0.30253690481185913,0.13967084884643555
1764585671877867000,7.638866943359375,0.24109840393066406,-0.28531235456466675,0.09521070122718811
1764585671887822000,7.648822021484375,0.22481703758239746,-0.24435648322105408,0.04295596107840538
1764585671897776000,7.658776123046875,0.2139369547367096,-0.18808682262897491,-0.004299968481063843
1764585671907730200,7.668730224609375,0.21189406514167786,-0.16426981985569,-0.04257252439856529
1764585671917684000,7.67868408203125,0.20185235142707825,-0.1682312786579132,-0.059788528829813004
1764585671927638000,7.688637939453125,0.15995986759662628,-0.18604202568531036,-0.057222094386816025
1764585671937593000,7.698593017578125,0.07978779822587967,-0.2058279812335968,-0.02198527753353119
1764585671947547000,7.708546875,-0.03642342984676361,-0.2160220444202423,0.029812360182404518
1764585671957501000,7.7185009765625,-0.12355354428291321,-0.188078835606575,0.06906842440366745
1764585671967455200,7.728455322265625,-0.1314059942960739,-0.18915855884552002,0.08162196725606918
1764585671977410000,7.73841015625,-0.09838360548019409,-0.23463335633277893,0.07241275906562805
1764585671987364000,7.748364013671875,-0.08693450689315796,-0.25577986240386963,0.06729714572429657
1764585671997318100,7.758318115234375,-0.10846536606550217,-0.22464938461780548,0.05411422997713089
1764585672007272000,7.76827197265625,-0.15143105387687683,-0.12265229970216751,0.022037308663129807
1764585672017227000,7.77822705078125,-0.17803390324115753,-0.020991716533899307,-0.006284876726567745
1764585672027181000,7.78818115234375,-0.18378111720085144,-0.03268125280737877,0.000057495664805173874
1764585672037135000,7.798135009765625,-0.18230199813842773,-0.15911802649497986,0.06947438418865204
1764585672047089200,7.808089111328125,-0.1950763612985611,-0.2517910599708557,0.16968700289726257
1764585672057043200,7.818043212890625,-0.18798010051250458,-0.2936985492706299,0.23484550416469574
1764585672066998000,7.827998046875,-0.16962625086307526,-0.3019736707210541,0.23611029982566833
1764585672076952000,7.8379521484375,-0.13027697801589966,-0.2662052810192108,0.19976213574409485
1764585672086905900,7.84790576171875,-0.08185581117868423,-0.23038341104984283,0.13827316462993622
1764585672096860000,7.85785986328125,-0.04074672609567642,-0.20166601240634918,0.07613788545131683
1764585672106815000,7.86781494140625,-0.03862406685948372,-0.19787870347499847,0.0310869961977005
1764585672116769000,7.87776904296875,-0.06854121387004852,-0.2064727246761322,0.018965616822242737
1764585672126723000,7.88772314453125,-0.12668529152870178,-0.20013850927352905,0.027667127549648285
1764585672136677000,7.897677001953125,-0.18547429144382477,-0.2060677707195282,0.04822086915373802
1764585672146631000,7.907630859375,-0.2089996039867401,-0.2127760350704193,0.08355265110731125
1764585672156586000,7.9175859375,-0.19331970810890198,-0.2271331399679184,0.11689808964729309
1764585672166540000,7.9275400390625,-0.17420674860477448,-0.23994004726409912,0.14280490577220917
1764585672176494000,7.937494140625,-0.1735265702009201,-0.2301982045173645,0.16589078307151794
1764585672186448100,7.9474482421875,-0.17539922893047333,-0.20599761605262756,0.1959100365638733
1764585672196403000,7.95740283203125,-0.18970173597335815,-0.16191191971302032,0.2323862910270691
1764585672206357000,7.96735693359375,-0.2135801911354065,-0.12398484349250793,0.26324567198753357
1764585672216311000,7.97731103515625,-0.23951324820518494,-0.0971044972538948,0.2846931517124176
1764585672226264800,7.987264892578125,-0.2637737989425659,-0.07728985697031021,0.2784731984138489
1764585672236219100,7.99721923828125,-0.27519556879997253,-0.031158044934272766,0.23348653316497803
1764585672246174200,8.00717431640625,-0.27575039863586426,0.01025086734443903,0.1788419932126999
1764585672256128000,8.0171279296875,-0.26883548498153687,0.0015623043291270733,0.14484140276908875
1764585672266082000,8.02708203125,-0.2420010268688202,-0.03480466455221176,0.13003787398338318
1764585672276036000,8.0370361328125,-0.2032081037759781,-0.05183184891939163,0.10941967368125916
1764585672285991000,8.046990966796875,-0.16732481122016907,-0.06831040233373642,0.08783602714538574
1764585672295945200,8.0569453125,-0.12894652783870697,-0.08516821265220642,0.07033772766590118
1764585672305899300,8.066899169921875,-0.09879681468009949,-0.08147404342889786,0.058325912803411484
1764585672315853000,8.07685302734375,-0.09621647745370865,-0.11310946941375732,0.05143525078892708
1764585672325808000,8.08680810546875,-0.11703687161207199,-0.1653008610010147,0.06323161721229553
1764585672335762000,8.096761962890625,-0.14150546491146088,-0.22932884097099304,0.08653906732797623
1764585672345716000,8.106716064453124,-0.1644408106803894,-0.2815990447998047,0.11082267761230469
1764585672355670000,8.116669921875,-0.1806757152080536,-0.30482766032218933,0.12276057153940201
1764585672365624000,8.1266240234375,-0.16844961047172546,-0.2812308967113495,0.10854844748973846
1764585672375579100,8.1365791015625,-0.14626814424991608,-0.23155468702316284,0.08052213490009308
1764585672385533200,8.146533203125,-0.1225338950753212,-0.17237883806228638,0.04890647530555725
1764585672395487000,8.156487060546874,-0.10037239640951157,-0.12845878303050995,0.04336630180478096
1764585672405441000,8.16644091796875,-0.08185387402772903,-0.07716482877731323,0.0548742413520813
1764585672415396000,8.17639599609375,-0.07261350750923157,-0.01848340407013893,0.06959672272205353
1764585672425350000,8.186349853515624,-0.0733579695224762,-0.002916676225140691,0.08839163184165955
1764585672435304200,8.19630419921875,-0.07003860175609589,-0.02294631116092205,0.08526108413934708
1764585672445258200,8.20625830078125,-0.07123403996229172,-0.034579209983348846,0.06585461646318436
1764585672455212000,8.2162119140625,-0.08071036636829376,-0.019993877038359642,0.029871579259634018
1764585672465167000,8.2261669921875,-0.09133605659008026,0.014009964652359486,-0.001311414409428835
1764585672475121000,8.236120849609375,-0.10144488513469696,0.03373067080974579,-0.015491947531700134
1764585672485075000,8.246074951171876,-0.10343820601701736,0.03682812303304672,-0.007996375672519207
1764585672495029000,8.256029052734375,-0.10652054846286774,0.01779504120349884,-0.003199223428964615
1764585672504984000,8.265984130859374,-0.10311508923768997,0.0029615031089633703,-0.007349127903580666
1764585672514938000,8.275938232421876,-0.0778542011976242,-0.012032093480229378,-0.023493744432926178
1764585672524892200,8.28589208984375,-0.043907031416893005,-0.03653128445148468,-0.051898010075092316
1764585672534846000,8.295845947265626,-0.007864344865083694,-0.09856270253658295,-0.08765041083097458
1764585672544800000,8.305800048828125,0.009290428832173347,-0.1702398657798767,-0.12814073264598846
1764585672554755000,8.315755126953125,0.01162282470613718,-0.22369803488254547,-0.17400330305099487
1764585672564708900,8.325708984375,0.002549469005316496,-0.23740480840206146,-0.21171686053276062
1764585672574663200,8.3356630859375,-0.009367112070322037,-0.2439250349998474,-0.2335265427827835
1764585672584617200,8.3456171875,-0.02314995788037777,-0.24133390188217163,-0.23655381798744202
1764585672594572000,8.355572021484376,-0.04155213385820389,-0.28524917364120483,-0.21956869959831238
1764585672604526000,8.365526123046875,-0.06779629737138748,-0.344974547624588,-0.1941867619752884
1764585672614480100,8.375480224609374,-0.08544453233480453,-0.3309394121170044,-0.16071109473705292
1764585672624434000,8.385433837890625,-0.08311986178159714,-0.2708342671394348,-0.12900084257125854
1764585672634388000,8.395387939453125,-0.06903466582298279,-0.23297904431819916,-0.09965971857309341
1764585672644343000,8.405343017578126,-0.04866175353527069,-0.23861004412174225,-0.07902448624372482
1764585672654297000,8.415297119140625,-0.030691541731357574,-0.2562481462955475,-0.06860087811946869
1764585672664251100,8.425251220703124,-0.005193993449211121,-0.23885643482208252,-0.08299706876277924
1764585672674205200,8.435205078125,0.009750335477292538,-0.16898787021636963,-0.11702001839876175
1764585672684160000,8.445159912109375,0.01160389557480812,-0.08419228345155716,-0.163593128323555
1764585672694114000,8.455114013671874,0.010088556446135044,0.03256469592452049,-0.2025168240070343
1764585672704067800,8.46506787109375,0.021831421181559563,0.1515701860189438,-0.21269658207893372
1764585672714022100,8.475022216796875,0.05351371318101883,0.2450695037841797,-0.18515869975090027
1764585672723977200,8.484977294921874,0.08332616090774536,0.31527695059776306,-0.12382794171571732
1764585672733931000,8.494930908203125,0.10208067297935486,0.3374975621700287,-0.03179176151752472
1764585672743885000,8.504885009765625,0.057665031403303146,0.2813820242881775,0.03974487632513046
1764585672753839000,8.514839111328126,-0.04399501904845238,0.2835913896560669,0.0716327652335167
1764585672763793000,8.52479296875,-0.1338760256767273,0.2777629494667053,0.060115981847047806
1764585672773748200,8.534748291015624,-0.1991887092590332,0.15838433802127838,0.02103755623102188
1764585672783702300,8.544702392578126,-0.2476794272661209,-0.033860884606838226,-0.003989288117736578
1764585672793656300,8.55465625,-0.27429667115211487,-0.18748532235622406,-0.0627351626753807
1764585672803610400,8.5646103515625,-0.2643345594406128,-0.273090124130249,-0.139434352517128
1764585672813565200,8.574565185546875,-0.22551684081554413,-0.22724540531635284,-0.20011314749717712
1764585672823519200,8.584519287109375,-0.15650953352451324,-0.10003465414047241,-0.22526857256889343
1764585672833473300,8.594473388671876,-0.08369656652212143,0.033468812704086304,-0.21369554102420807
1764585672843427300,8.60442724609375,-0.04534820467233658,0.14717788994312286,-0.1596987247467041
1764585672853381400,8.61438134765625,-0.037798941135406494,0.25427210330963135,-0.08801014721393585
1764585672863336400,8.62433642578125,-0.02837424725294113,0.3326099216938019,-0.014272964559495449
1764585672873290200,8.634290283203125,-0.021647103130817413,0.3611571490764618,0.05566643923521042
1764585672883244300,8.644244384765624,-0.02227279171347618,0.35493096709251404,0.09377487003803253
1764585672893198300,8.6541982421875,-0.02677459642291069,0.321612149477005,0.10129537433385849
1764585672903153400,8.6641533203125,-0.017569025978446007,0.2825947403907776,0.07208284735679626
1764585672913107500,8.674107421875,0.004442533012479544,0.25982630252838135,0.023694008588790894
1764585672923061200,8.684061279296875,0.04513060674071312,0.24234023690223694,-0.01586885191500187
1764585672933015300,8.694015380859375,0.07461925595998764,0.20964594185352325,-0.03518262878060341
1764585672942969300,8.70396923828125,0.08320717513561249,0.1658076047897339,-0.033686354756355286
1764585672952924200,8.713924072265625,0.07387173175811768,0.13030260801315308,-0.02823060005903244
1764585672962878200,8.723878173828124,0.04727720469236374,0.1184171587228775,-0.027052458375692368
1764585672972832300,8.733832275390625,0.014828715473413467,0.15422150492668152,-0.03307599574327469
1764585672982786300,8.743786376953125,-0.018156729638576508,0.20776383578777313,-0.049549203366041183
1764585672992741400,8.753741455078124,-0.03472798317670822,0.23509852588176727,-0.06506824493408203
1764585673002695400,8.7636953125,-0.03503666818141937,0.25823041796684265,-0.08352101594209671
1764585673012649200,8.773649169921875,-0.04066286236047745,0.2850939631462097,-0.10967618972063065
1764585673022603300,8.783603271484376,-0.047197457402944565,0.27158161997795105,-0.11959140002727509
1764585673032558000,8.79355810546875,-0.04645470529794693,0.21494124829769135,-0.11164692789316177
1764585673042512400,8.803512451171875,-0.039311084896326065,0.1765594780445099,-0.1180303618311882
1764585673052466400,8.813466552734376,-0.034424182027578354,0.2065032571554184,-0.12997783720493317
1764585673062420500,8.82342041015625,-0.02633027173578739,0.23835253715515137,-0.1395026445388794
1764585673072374300,8.833374267578124,-0.007982689887285233,0.2667950987815857,-0.13186122477054596
1764585673082329300,8.843329345703125,0.01632150635123253,0.2911851406097412,-0.11631087213754654
1764585673092283100,8.853283203125,0.0391533188521862,0.3130249083042145,-0.10446725785732269
1764585673102237200,8.8632373046875,0.048388607800006866,0.3442145884037018,-0.0927681028842926
1764585673112191200,8.873191162109375,0.05263315513730049,0.3583029508590698,-0.07638859748840332
1764585673122146300,8.883146240234375,0.05887516215443611,0.36575770378112793,-0.06341559439897537
1764585673132100400,8.893100341796876,0.07234196364879608,0.36035069823265076,-0.046953797340393066
1764585673142054400,8.903054443359375,0.08222117274999619,0.3597719371318817,-0.036850281059741974
1764585673152008200,8.91300830078125,0.09279259294271469,0.35484883189201355,-0.03226511552929878
1764585673161962200,8.922962158203125,0.0989149659872055,0.3294914960861206,-0.037121668457984924
1764585673171917300,8.932917236328125,0.09747260063886642,0.28436556458473206,-0.04720545932650566
1764585673181871400,8.942871337890624,0.08258657157421112,0.25386950373649597,-0.06328734010457993
1764585673191825400,8.952825439453125,0.07414142042398453,0.2544324994087219,-0.06712015718221664
1764585673201779500,8.962779541015625,0.07556368410587311,0.2779786288738251,-0.07142136991024017
1764585673211734300,8.972734375,0.08047029376029968,0.29610490798950195,-0.08100581914186478
1764585673221688300,8.982688232421875,0.07813170552253723,0.2925882339477539,-0.08531557023525238
1764585673231642400,8.992642333984374,0.07055793702602386,0.299783855676651,-0.0855906754732132
1764585673241596200,9.00259619140625,0.05871828645467758,0.3357485234737396,-0.07843928784132004
1764585673251550200,9.01255029296875,0.03404330089688301,0.3785151541233063,-0.07263146340847015
1764585673261505300,9.02250537109375,0.009567974135279655,0.409950315952301,-0.05960896611213684
1764585673271459300,9.032459228515625,0.002473845612257719,0.4393332302570343,-0.03994498401880264
1764585673281413400,9.042413330078125,0.004750204272568226,0.4751558303833008,-0.025154534727334976
1764585673291367200,9.0523671875,0.009912742301821709,0.5138946771621704,-0.01224246434867382
1764585673301322200,9.062322265625,0.011177700012922287,0.5159439444541931,-0.004405689891427755
1764585673311276300,9.0722763671875,0.0006174668669700623,0.5077028274536133,0.012092327699065208
1764585673321230300,9.082230224609376,-0.010222675278782845,0.5086496472358704,0.02932804450392723
1764585673331184400,9.092184326171875,-0.012082893401384354,0.5134835839271545,0.05460650101304054
1764585673341138400,9.102138427734374,-0.015898890793323517,0.4602511525154114,0.08432096987962723
1764585673351093200,9.11209326171875,-0.010178154334425926,0.41321438550949097,0.11026282608509064
1764585673361047300,9.12204736328125,0.012177204713225365,0.39376524090766907,0.12437880039215088
1764585673371001300,9.13200146484375,0.035470277070999146,0.38982856273651123,0.12785741686820984
1764585673380955100,9.141955078125,0.047765497118234634,0.3706919252872467,0.11465667188167572
1764585673390910500,9.151910400390625,0.04898389056324959,0.34728407859802246,0.10389537364244461
1764585673400864300,9.1618642578125,0.03715294227004051,0.33354201912879944,0.08959519863128662
1764585673410818300,9.171818359375,0.02197558805346489,0.30300435423851013,0.08762659132480621
1764585673420772400,9.1817724609375,0.006408954970538616,0.26710084080696106,0.07732836902141571
1764585673430727200,9.19172705078125,0.002499700989574194,0.22859176993370056,0.06825737655162811
1764585673440681200,9.20168115234375,-0.0010324050672352314,0.21513430774211884,0.05772814154624939
1764585673450635300,9.21163525390625,0.0064532081596553326,0.21765418350696564,0.055914536118507385
1764585673460589300,9.22158935546875,0.01624174602329731,0.24834543466567993,0.06216400861740112
1764585673470543400,9.23154345703125,0.04434608295559883,0.2869844138622284,0.08003035187721252
1764585673480498400,9.24149853515625,0.08083336055278778,0.3227389454841614,0.10810347646474838
1764585673490452200,9.2514521484375,0.10874994099140167,0.34014880657196045,0.1380709707736969
1764585673500406300,9.26140625,0.13437771797180176,0.33213216066360474,0.1683049350976944
1764585673510360300,9.2713603515625,0.16249750554561615,0.32439327239990234,0.1900579035282135
1764585673520315400,9.2813154296875,0.19875286519527435,0.35406577587127686,0.20004135370254517
1764585673530269400,9.29126953125,0.23562964797019958,0.39185336232185364,0.20678260922431946
1764585673540223500,9.301223388671875,0.2705601751804352,0.4158133268356323,0.21849215030670166
1764585673550177300,9.31117724609375,0.31244635581970215,0.43160349130630493,0.2439650148153305
1764585673560131300,9.32113134765625,0.36020421981811523,0.4391956925392151,0.26871156692504883
1764585673570086100,9.331086181640625,0.40019986033439636,0.43751418590545654,0.2946227788925171
1764585673580040200,9.341040283203125,0.4458215832710266,0.439901202917099,0.32771098613739014
1764585673589994200,9.350994140625,0.48929154872894287,0.4465958774089813,0.3588942289352417
1764585673599948300,9.3609482421875,0.5399454832077026,0.4627762734889984,0.3840172588825226
1764585673609903400,9.3709033203125,0.5899428725242615,0.49783357977867126,0.41065260767936707
1764585673619857400,9.380857421875,0.6431462168693542,0.5146498680114746,0.4427531063556671
1764585673629811200,9.390811279296875,0.671771764755249,0.5345593690872192,0.48635169863700867
1764585673639765200,9.40076513671875,0.683675229549408,0.5460803508758545,0.5323478579521179
1764585673649720000,9.410719970703125,0.6788889765739441,0.5586451292037964,0.5746846795082092
1764585673659674400,9.42067431640625,0.6529723405838013,0.549795389175415,0.6016488075256348
1764585673669628400,9.43062841796875,0.669270396232605,0.5678055882453918,0.6021100878715515
1764585673679582500,9.44058251953125,0.6887182593345642,0.5735083818435669,0.5634198784828186
1764585673689536300,9.450536376953124,0.7034886479377747,0.5952469706535339,0.5209302306175232
1764585673699491300,9.4604912109375,0.7583155035972595,0.653599739074707,0.49464356899261475
1764585673709445000,9.470445068359375,0.8411270380020142,0.7421988844871521,0.5140324234962463
1764585673719399200,9.480399169921874,0.8983669281005859,0.8227100968360901,0.6083272099494934
1764585673729353200,9.490353271484375,0.9641635417938232,0.8302958607673645,0.6895038485527039
1764585673739308300,9.500308349609375,1.0431623458862305,0.7902072668075562,0.7345761656761169
1764585673749262300,9.510262451171876,1.0847837924957275,0.6755393147468567,0.7328014373779297
1764585673759216400,9.52021630859375,1.08187997341156,0.47077369689941406,0.6904030442237854
1764585673769170200,9.530170166015624,1.035322904586792,0.21339355409145355,0.6170766353607178
1764585673779124200,9.540124267578125,0.9910528659820557,-0.0297426488250494,0.4742920696735382
1764585673789079300,9.550079345703125,0.9431796669960022,-0.21772027015686035,0.28900450468063354
1764585673799033300,9.560033447265624,0.8913143873214722,-0.3317614793777466,0.09496308118104935
1764585673808987400,9.5699873046875,0.8139626383781433,-0.35414427518844604,-0.06892518699169159
1764585673818941400,9.57994140625,0.6991841793060303,-0.3312459886074066,-0.1913367658853531
1764585673828896300,9.589896240234374,0.563960611820221,-0.2619419991970062,-0.23794181644916534
1764585673838850300,9.599850341796875,0.4062485694885254,-0.20078590512275696,-0.2523989975452423
1764585673848804400,9.609804443359375,0.26445308327674866,-0.15158693492412567,-0.28099918365478516
1764585673858758100,9.619758056640626,0.12835811078548431,-0.10900117456912994,-0.31283873319625854
1764585673868713500,9.62971337890625,0.015432622283697128,-0.0714106559753418,-0.35869091749191284
1764585673878667300,9.639667236328124,-0.07367345690727234,-0.028247790411114693,-0.3844682276248932
1764585673888621300,9.649621337890625,-0.14536866545677185,0.06817568093538284,-0.37047597765922546
1764585673898575400,9.659575439453125,-0.18153910338878632,0.11190137267112732,-0.3261663615703583
1764585673908529400,9.669529296875,-0.16969417035579681,0.1258355677127838,-0.2851547300815582
1764585673918484200,9.679484130859375,-0.16441629827022552,0.17333124577999115,-0.2589876055717468
1764585673928438300,9.689438232421875,-0.186127707362175,0.2167852520942688,-0.2637341618537903
1764585673938392300,9.699392333984376,-0.22871366143226624,0.24725490808486938,-0.29970303177833557
1764585673948346400,9.709346435546875,-0.26693668961524963,0.2546912729740143,-0.3420214354991913
1764585673958301200,9.71930126953125,-0.2888067960739136,0.19972731173038483,-0.37257376313209534
1764585673968255200,9.729255126953126,-0.31072330474853516,0.13291925191879272,-0.4031228721141815
1764585673978209300,9.739209228515625,-0.3081747591495514,0.09212300181388855,-0.41598403453826904
1764585673988163300,9.749163330078124,-0.27667516469955444,-0.005813154391944408,-0.4445224702358246
1764585673998117000,9.7591171875,-0.2678641080856323,-0.01871679723262787,-0.4375878572463989
1764585674008072400,9.769072509765625,-0.26338812708854675,-0.08263000100851059,-0.4233279526233673
1764585674018026200,9.779026123046876,-0.2139982432126999,-0.17069153487682343,-0.46607154607772827
1764585674027980300,9.788980224609375,-0.13916368782520294,-0.2041000872850418,-0.5000489354133606
1764585674037934300,9.798934326171874,-0.11699654906988144,-0.3027278482913971,-0.49698302149772644
1764585674047889200,9.80888916015625,-0.1151195541024208,-0.5267660021781921,-0.5199037790298462
1764585674057843200,9.81884326171875,-0.14650237560272217,-0.6155651807785034,-0.5022276639938354
1764585674067797200,9.82879736328125,-0.19094467163085938,-0.6255829334259033,-0.462933212518692
1764585674077751300,9.838751220703125,-0.24269545078277588,-0.587792694568634,-0.4049079120159149
1764585674087705300,9.848705322265625,-0.2645019292831421,-0.5890440940856934,-0.3612384498119354
1764585674097660400,9.858660400390624,-0.27554669976234436,-0.6712267398834229,-0.35551926493644714
1764585674107614200,9.8686142578125,-0.2820216417312622,-0.7444970011711121,-0.3780458867549896
1764585674117568300,9.878568359375,-0.2489999234676361,-0.7402370572090149,-0.41242772340774536
1764585674127522300,9.888522216796876,-0.17308253049850464,-0.6987351179122925,-0.455157071352005
1764585674137477400,9.898477294921875,-0.10412032902240753,-0.6063447594642639,-0.4666275680065155
1764585674147431400,9.908431396484374,-0.0762048065662384,-0.5081468224525452,-0.44633880257606506
1764585674157385500,9.918385498046876,-0.07645141333341599,-0.43507981300354004,-0.3924548029899597
1764585674167339300,9.92833935546875,-0.09279630333185196,-0.321064293384552,-0.3167158365249634
1764585674177293300,9.938293212890626,-0.11457986384630203,-0.1840268224477768,-0.23813340067863464
1764585674187248000,9.948248046875,-0.14280538260936737,-0.01799524761736393,-0.16420456767082214
1764585674197202200,9.9582021484375,-0.15752366185188293,0.1370118111371994,-0.09792020171880722
1764585674207156500,9.968156494140626,-0.1557268351316452,0.24976712465286255,-0.026518456637859344
1764585674217110300,9.9781103515625,-0.13239280879497528,0.3012262284755707,0.04279846325516701
1764585674227065300,9.9880654296875,-0.10495852679014206,0.3033282458782196,0.11433708667755127
1764585674237019400,9.998019287109376,-0.08788084983825684,0.27562475204467773,0.18613025546073914
1764585674246973200,10.00797314453125,-0.08698416501283646,0.19862447679042816,0.22978799045085907
1764585674256927200,10.01792724609375,-0.08112997561693192,0.0903693363070488,0.2391563057899475
1764585674266882300,10.02788232421875,-0.05517188459634781,0.0052704173140227795,0.214572936296463
1764585674276836400,10.03783642578125,-0.013805259019136429,-0.07544782012701035,0.17065858840942383
1764585674286790400,10.047790283203126,0.02728891372680664,-0.12289629131555557,0.12335418164730072
1764585674296744400,10.057744384765625,0.056910257786512375,-0.12420540302991867,0.08012107014656067
1764585674306698200,10.0676982421875,0.07333184033632278,-0.11732353270053864,0.05368626490235329
1764585674316653300,10.0776533203125,0.08720239251852036,-0.10082561522722244,0.04900629073381424
1764585674326607000,10.087607177734375,0.0904807448387146,-0.11868397146463394,0.06371359527111053
1764585674336561200,10.09756103515625,0.08533448725938797,-0.14642508327960968,0.08289021253585815
1764585674346515500,10.107515380859375,0.07630903273820877,-0.13074891269207,0.09766490012407303
1764585674356470300,10.11747021484375,0.06876348704099655,-0.1218302771449089,0.12230405956506729
1764585674366424300,10.12742431640625,0.059874121099710464,-0.13716556131839752,0.1339159607887268
1764585674376378400,10.13737841796875,0.0539635568857193,-0.1477145552635193,0.1417994350194931
1764585674386332200,10.147332275390625,0.048458803445100784,-0.12519752979278564,0.14908131957054138
1764585674396286200,10.1572861328125,0.04977032169699669,-0.1065654307603836,0.15637749433517456
1764585674406241500,10.167241455078125,0.05637842416763306,-0.0744948461651802,0.1595463752746582
1764585674416195300,10.1771953125,0.06298177689313889,-0.039401546120643616,0.16354337334632874
1764585674426149400,10.1871494140625,0.058108456432819366,-0.00924923736602068,0.17358748614788055
1764585674436103400,10.197103515625,0.05033066123723984,0.015441608615219593,0.18936100602149963
1764585674446058200,10.207058349609374,0.03920717164874077,-0.017020462080836296,0.19781893491744995
1764585674456012300,10.21701220703125,0.03263598680496216,-0.01636474020779133,0.20963835716247559
1764585674465966300,10.22696630859375,0.02687663584947586,-0.01294257864356041,0.20707985758781433
1764585674475920100,10.236920166015626,0.01776248775422573,-0.0070334612391889095,0.20693498849868774
1764585674485874400,10.24687451171875,0.01909114047884941,-0.0036190226674079895,0.20596426725387573
1764585674495829200,10.256829345703125,0.013649102300405502,-0.004036410246044397,0.20859967172145844
1764585674505783300,10.266783203125,0.007240737788379192,-0.00531659135594964,0.20354366302490234
1764585674515737300,10.2767373046875,0.0002944702282547951,-0.016957607120275497,0.19202612340450287
1764585674525691400,10.28669140625,0.00016903551295399666,-0.02136673592031002,0.17839393019676208
1764585674535646200,10.296646240234375,0.003115168772637844,-0.022971583530306816,0.15684902667999268
1764585674545600500,10.3066005859375,0.00104562658816576,-0.021216027438640594,0.1330326497554779
1764585674555554300,10.31655419921875,-0.0008313371799886227,-0.009403063915669918,0.1049719750881195
1764585674565508400,10.32650830078125,-0.005103580188006163,0.006868584081530571,0.08135266602039337
1764585674575463200,10.336463134765625,-0.0125171123072505,0.04194318503141403,0.05961037427186966
1764585674585417200,10.346417236328126,-0.017317991703748703,0.06792205572128296,0.02759518474340439
1764585674595371300,10.356371337890625,-0.020570531487464905,0.08538924157619476,-0.00717516615986824
1764585674605325300,10.3663251953125,-0.027505137026309967,0.07382499426603317,-0.03550134599208832
1764585674615279000,10.376279052734375,-0.037913791835308075,0.030903387814760208,-0.055680543184280396
1764585674625234400,10.386234375,-0.046043090522289276,-0.03280661627650261,-0.0759972631931305
1764585674635188200,10.396188232421874,-0.04692233353853226,-0.0815766230225563,-0.10288646072149277
1764585674645142300,10.406142333984375,-0.04671034589409828,-0.10700315237045288,-0.12349347025156021
1764585674655096300,10.416096435546875,-0.04509587958455086,-0.12131025642156601,-0.14667725563049316
1764585674665051100,10.426051025390626,-0.03885502740740776,-0.13300180435180664,-0.15419988334178925
1764585674675005200,10.436005126953125,-0.030865823850035667,-0.15163104236125946,-0.15297481417655945
1764585674684959500,10.44595947265625,-0.022844914346933365,-0.17611029744148254,-0.15016011893749237
1764585674694913300,10.455913330078126,-0.019627481698989868,-0.18141095340251923,-0.13605433702468872
1764585674704867300,10.465867431640625,-0.020892217755317688,-0.16273392736911774,-0.12170201539993286
1764585674714822400,10.475822509765624,-0.022130798548460007,-0.14193418622016907,-0.10452132672071457
1764585674724776200,10.485776123046875,-0.03140046447515488,-0.11038292199373245,-0.07701859623193741
1764585674734730200,10.495730224609375,-0.040206439793109894,-0.09335202723741531,-0.05403365567326546
1764585674744684300,10.505684326171876,-0.04823347181081772,-0.08019787073135376,-0.031695060431957245
1764585674754639400,10.515639404296875,-0.047226130962371826,-0.08058210462331772,-0.021513473242521286
1764585674764593400,10.525593505859375,-0.04135199636220932,-0.08558325469493866,-0.02225968986749649
1764585674774547500,10.53554736328125,-0.03490874543786049,-0.08780326694250107,-0.023845069110393524
1764585674784501200,10.545501220703125,-0.03498411178588867,-0.0773458257317543,-0.02202266827225685
1764585674794455300,10.555455322265624,-0.03743145614862442,-0.06418480724096298,-0.02213883399963379
1764585674804410000,10.56541015625,-0.03922802582383156,-0.04289735481142998,-0.01323721930384636
1764585674814364200,10.5753642578125,-0.037591613829135895,-0.024816306307911873,-0.004287081770598888
1764585674824318200,10.585318115234376,-0.03210523724555969,-0.010943367145955563,0.0064417291432619095
1764585674834272300,10.595272216796875,-0.01987837627530098,-0.016964824870228767,0.015489665791392326
1764585674844227300,10.605227294921875,-0.00704912981018424,-0.022260254248976707,0.01563347689807415
1764585674854181400,10.615181396484376,0.009852765128016472,-0.033565398305654526,0.013926981948316097
1764585674864135200,10.62513525390625,0.019970647990703583,-0.039577484130859375,0.00991253275424242
1764585674874089200,10.635089111328124,0.03140651807188988,-0.049566105008125305,0.012696072459220886
1764585674884043300,10.645043212890625,0.03628329560160637,-0.06767480820417404,0.019922560080885887
1764585674893998000,10.654998046875,0.039118021726608276,-0.07934845238924026,0.027336254715919495
1764585674903952100,10.6649521484375,0.04545155167579651,-0.08351044356822968,0.0394778698682785
1764585674913906400,10.674906494140625,0.054562103003263474,-0.09585554897785187,0.04574434459209442
1764585674923860200,10.684860107421875,0.05323105305433273,-0.1092081069946289,0.049070633947849274
1764585674933815300,10.694815185546876,0.05159727483987808,-0.11529146134853363,0.06182914227247238
1764585674943769300,10.704769287109375,0.04772663488984108,-0.11441715061664581,0.07751462608575821
1764585674953723100,10.71472314453125,0.04629506170749664,-0.11439932882785797,0.09671527147293091
1764585674963677200,10.72467724609375,0.04613393917679787,-0.11279397457838058,0.11290596425533295
1764585674973632300,10.73463232421875,0.044668395072221756,-0.10554662346839905,0.12293915450572968
1764585674983586300,10.74458642578125,0.041833460330963135,-0.10378148406744003,0.13270869851112366
1764585674993540400,10.754540283203125,0.036127734929323196,-0.09514728933572769,0.13654999434947968
1764585675003494100,10.764494140625,0.03567686304450035,-0.07528357207775116,0.13753828406333923
1764585675013448200,10.7744482421875,0.036758918315172195,-0.06656528264284134,0.1316436529159546
1764585675023403300,10.7844033203125,0.04232519119977951,-0.05264919996261597,0.12335482984781265
1764585675033357000,10.794357177734375,0.04904186725616455,-0.03568553924560547,0.11013174057006836
1764585675043311000,10.80431103515625,0.05247228592634201,-0.012695799581706524,0.0915181115269661
1764585675053265400,10.814265380859375,0.06649786233901978,0.0024233509320765734,0.06521125137805939
1764585675063220200,10.82422021484375,0.076969675719738,0.023290814831852913,0.033963318914175034
1764585675073174300,10.83417431640625,0.07848745584487915,0.0520164929330349,0.005408215336501598
1764585675083128300,10.84412841796875,0.07972502708435059,0.07929977774620056,-0.018705375492572784
1764585675093082000,10.85408203125,0.07821855694055557,0.0818638727068901,-0.040728285908699036
1764585675103037200,10.864037109375,0.08087985217571259,0.058637380599975586,-0.06432496011257172
1764585675112991200,10.8739912109375,0.08265599608421326,0.03434354066848755,-0.09194838255643845
1764585675122945300,10.8839453125,0.0860866829752922,0.0051694088615477085,-0.1204652488231659
1764585675132899300,10.8938994140625,0.098036028444767,-0.03575441986322403,-0.14037343859672546
1764585675142853400,10.903853271484374,0.09712149947881699,-0.058040816336870193,-0.1534104198217392
1764585675152808200,10.91380810546875,0.09069566428661346,-0.05500752106308937,-0.15243414044380188
1764585675162762200,10.92376220703125,0.08453124016523361,-0.060843575745821,-0.15120643377304077
1764585675172716000,10.933716064453124,0.07984109967947006,-0.07877190411090851,-0.14682111144065857
1764585675182670000,10.943670166015625,0.07203137874603271,-0.11423535645008087,-0.14417393505573273
1764585675192625400,10.95362548828125,0.05758284777402878,-0.12963853776454926,-0.1446768343448639
1764585675202579200,10.9635791015625,0.044616181403398514,-0.10989546775817871,-0.1438421905040741
1764585675212533200,10.973533203125,0.03339176997542381,-0.11313823610544205,-0.14633145928382874
1764585675222487300,10.9834873046875,0.019020553678274155,-0.11101356148719788,-0.13719868659973145
1764585675232441000,10.993441162109375,0.0017989091575145721,-0.10589537769556046,-0.12720887362957
1764585675242396200,11.003396240234375,-0.016841886565089226,-0.09093746542930603,-0.11652374267578125
1764585675252350200,11.01335009765625,-0.029912235215306282,-0.08351409435272217,-0.1069960966706276
1764585675262304300,11.02330419921875,-0.03873368725180626,-0.0720587745308876,-0.09747742116451263
1764585675272258300,11.03325830078125,-0.043537840247154236,-0.06400217860937119,-0.09005582332611084
1764585675282213000,11.043213134765624,-0.041599858552217484,-0.06053527817130089,-0.0906401202082634
1764585675292167200,11.053167236328125,-0.0372311994433403,-0.05039246007800102,-0.09606391936540604
1764585675302121200,11.063121337890625,-0.03185055032372475,-0.04429382085800171,-0.10401345789432526
1764585675312075300,11.0730751953125,-0.020068980753421783,-0.04948507621884346,-0.11344199627637863
1764585675322029000,11.083029052734375,-0.011057110503315926,-0.06572982668876648,-0.11619250476360321
1764585675331984400,11.092984375,-0.007942764088511467,-0.08732765167951584,-0.11293201893568039
1764585675341938200,11.102938232421875,-0.01025199145078659,-0.1040957123041153,-0.10833512991666794
1764585675351892200,11.112892333984375,-0.011643771082162857,-0.11084113270044327,-0.10293423384428024
1764585675361846300,11.12284619140625,-0.005193594377487898,-0.09834051877260208,-0.0974678322672844
1764585675371801000,11.132801025390625,-0.002679392695426941,-0.08030644059181213,-0.08831210434436798
1764585675381755100,11.142755126953125,0.00017551565542817116,-0.07089642435312271,-0.07493717223405838
1764585675391709400,11.15270947265625,0.002253092359751463,-0.06940716505050659,-0.06792256981134415
1764585675401663200,11.162663330078125,0.00597912073135376,-0.06983619928359985,-0.0673486590385437
1764585675411618300,11.172618408203125,0.008214334025979042,-0.07246173173189163,-0.06988026201725006
1764585675421572000,11.182572021484376,0.016131378710269928,-0.06414175033569336,-0.07341214269399643
1764585675431526100,11.192526123046875,0.022336967289447784,-0.04801962897181511,-0.07374631613492966
1764585675441480200,11.202480224609374,0.02387947030365467,-0.036799464374780655,-0.0786324143409729
1764585675451434200,11.212434326171875,0.02277870662510395,-0.012701855972409248,-0.07853638380765915
1764585675461389300,11.222389404296875,0.03137485682964325,0.0028597938362509012,-0.0713953822851181
1764585675471343400,11.23234326171875,0.03683341667056084,0.002811299404129386,-0.06579868495464325
1764585675481297200,11.242297119140625,0.044894538819789886,0.0003816974349319935,-0.06342288106679916
1764585675491251200,11.252251220703124,0.052615001797676086,-0.004892716649919748,-0.06533247977495193
1764585675501206300,11.262206298828126,0.059219375252723694,-0.004305756185203791,-0.07083377242088318
1764585675511160000,11.27216015625,0.06235329434275627,0.00775245763361454,-0.078117735683918
1764585675521114000,11.282114013671874,0.0731995552778244,0.0037044528871774673,-0.08812935650348663
1764585675531068400,11.292068359375,0.07542779296636581,-0.0028941358905285597,-0.10006377100944519
1764585675541022200,11.302022216796875,0.07784327864646912,0.011314627714455128,-0.10328779369592667
1764585675550977300,11.311977294921874,0.08271699398756027,0.009985639713704586,-0.0987575501203537
1764585675560931300,11.321931396484375,0.08722812682390213,-0.013134859502315521,-0.08638716489076614
1764585675570885000,11.331885009765625,0.08032543957233429,-0.0573466457426548,-0.06329420953989029
1764585675580839200,11.341839111328126,0.06672121584415436,-0.09271448850631714,-0.038363292813301086
1764585675590794200,11.351794189453125,0.05649040639400482,-0.12773497402668,-0.019578952342271805
1764585675600748300,11.361748291015624,0.04696747660636902,-0.13200907409191132,-0.005610140040516853
1764585675610702300,11.371702392578126,0.03619778901338577,-0.12684939801692963,-0.0011993534862995148
1764585675620656000,11.38165625,0.030384639278054237,-0.0921635851264,-0.0025977795012295246
1764585675630610200,11.391610107421876,0.028018323704600334,-0.0592561811208725,-0.00943645928055048
1764585675640565200,11.401565185546875,0.017412016168236732,-0.026893720030784607,-0.011269512586295605
1764585675650519000,11.41151904296875,0.0033336919732391834,-0.017241286113858223,-0.009537765756249428
1764585675660473000,11.42147314453125,-0.014261813834309578,-0.014338972046971321,-0.005621853284537792
1764585675670427400,11.431427490234375,-0.033538125455379486,-0.023376723751425743,-0.0035799583420157433
1764585675680382200,11.44138232421875,-0.04510290175676346,-0.02846895344555378,-0.002112023998051882
1764585675690336300,11.451336181640626,-0.05325213447213173,-0.03294863551855087,-0.004134586080908775
1764585675700290300,11.461290283203125,-0.05933346226811409,-0.03263145312666893,-0.006790822837501764
1764585675710244000,11.471244140625,-0.05971284210681915,-0.03262409195303917,-0.002203996293246746
1764585675720198100,11.4811982421875,-0.062253765761852264,-0.039284393191337585,0.000653575174510479
1764585675730153200,11.4911533203125,-0.06888631731271744,-0.04635094106197357,0.018074098974466324
1764585675740107300,11.501107177734376,-0.08326312899589539,-0.048710234463214874,0.04476802796125412
1764585675750061300,11.511061279296875,-0.09093677252531052,-0.04852291941642761,0.07167580723762512
1764585675760015400,11.521015380859374,-0.0920606255531311,-0.03202037885785103,0.0978056788444519
1764585675769970200,11.53097021484375,-0.09275002777576447,-0.015613925643265247,0.11356781423091888
1764585675779924200,11.54092431640625,-0.0972028374671936,0.004512914456427097,0.1325061023235321
1764585675789878300,11.550878173828124,-0.1067209467291832,0.0073937298730015755,0.14443305134773254
1764585675799832600,11.56083251953125,-0.1012798398733139,0.009709348902106285,0.15983597934246063
1764585675809787400,11.570787353515625,-0.09409476071596146,0.00372333568520844,0.16939517855644226
1764585675819741400,11.580741455078124,-0.08632392436265945,-0.003983053378760815,0.17238138616085052
1764585675829695500,11.590695556640625,-0.07851117104291916,0.0027991700917482376,0.1706494837999344
1764585675839649500,11.6006494140625,-0.0690430998802185,0.019460972398519516,0.1593254655599594
1764585675849603300,11.610603271484376,-0.05185586214065552,0.029580984264612198,0.13214656710624695
1764585675859558700,11.62055859375,-0.035522159188985825,0.05673457309603691,0.08738042414188385
1764585675869512400,11.630512451171874,-0.03797335550189018,0.08810080587863922,0.04057525470852852
1764585675879466500,11.640466552734376,-0.05027928948402405,0.12484976649284363,0.004520579241216183
1764585675889420500,11.650420654296875,-0.05166797339916229,0.16555632650852203,-0.011686299927532673
1764585675899375400,11.660375244140624,-0.03701739013195038,0.15155768394470215,-0.012634385377168655
1764585675909329400,11.670329345703125,-0.028407614678144455,0.10992078483104706,-0.013666518032550812
1764585675919283500,11.680283447265625,-0.022856522351503372,0.07030865550041199,-0.03549911454319954
1764585675929237200,11.6902373046875,-0.031756408512592316,0.06113426387310028,-0.06212998181581497
1764585675939192600,11.700192626953125,-0.03729045391082764,0.059301212430000305,-0.09607729315757751
1764585675949146600,11.710146728515625,-0.04659860208630562,0.03759971261024475,-0.11783020198345184
1764585675959100400,11.720100341796876,-0.048806898295879364,-0.022198639810085297,-0.12400953471660614
1764585675969054500,11.730054443359375,-0.04909488186240196,-0.10321567952632904,-0.11841898411512375
1764585675979008500,11.740008544921874,-0.053155671805143356,-0.17191246151924133,-0.10396307706832886
1764585675988963300,11.74996337890625,-0.0525943897664547,-0.20248885452747345,-0.08745541423559189
1764585675998917600,11.759917724609375,-0.047697100788354874,-0.20456239581108093,-0.06671658158302307
1764585676008871700,11.76987158203125,-0.033968161791563034,-0.204225093126297,-0.041387300938367844
1764585676018825500,11.779825439453125,-0.0249757319688797,-0.1766882836818695,-0.011156694032251835
1764585676028780500,11.789780517578125,-0.025563247501850128,-0.10738611221313477,0.022181440144777298
1764585676038734300,11.799734375,-0.03380786255002022,-0.021336983889341354,0.05979859083890915
1764585676048688400,11.8096884765625,-0.046562448143959045,0.039496585726737976,0.09700023382902145
1764585676058642400,11.819642333984374,-0.05675064027309418,0.08238226175308228,0.12273542582988739
1764585676068596500,11.829596435546875,-0.06471027433872223,0.11616214364767075,0.1275338977575302
1764585676078551600,11.839551513671875,-0.06959717720746994,0.15207087993621826,0.12454531341791153
1764585676088505600,11.849505615234374,-0.06702462583780289,0.17035605013370514,0.11047305911779404
1764585676098459400,11.85945947265625,-0.06479369848966599,0.17619502544403076,0.0946488231420517
1764585676108413400,11.869413330078125,-0.05911310762166977,0.16896171867847443,0.07244082540273666
1764585676118368500,11.879368408203124,-0.04611501470208168,0.1825137436389923,0.04479428753256798
1764585676128322300,11.889322265625,-0.025693930685520172,0.20187202095985413,0.013829987496137619
1764585676138276600,11.899276611328125,-0.008216670714318752,0.2207852602005005,-0.01660248637199402
1764585676148230700,11.909230712890626,0.006349154282361269,0.23542055487632751,-0.03016260452568531
1764585676158184400,11.919184326171875,0.016137337312102318,0.2098824381828308,-0.03208301216363907
1764585676168139500,11.929139404296874,0.023675337433815002,0.16517500579357147,-0.02548099122941494
1764585676178093300,11.93909326171875,0.03483984246850014,0.1631225049495697,-0.035553332418203354
1764585676188047400,11.94904736328125,0.0428476557135582,0.18735778331756592,-0.059050776064395905
1764585676198001400,11.95900146484375,0.04654332250356674,0.18761850893497467,-0.07127229124307632
1764585676207956500,11.96895654296875,0.05060059577226639,0.1540749967098236,-0.07263247668743134
1764585676217910500,11.97891064453125,0.04963812977075577,0.10969288647174835,-0.059611476957798004
1764585676227864600,11.988864501953126,0.05073651671409607,0.07203240692615509,-0.046451635658741
1764585676237818400,11.998818359375,0.04057762026786804,0.043670009821653366,-0.01883705146610737
1764585676247773400,12.0087734375,0.0352691225707531,0.04007226973772049,0.003711402416229248
1764585676257727500,12.0187275390625,0.022972241044044495,0.0600302629172802,0.021679218858480453
1764585676267681300,12.028681396484375,0.01386263221502304,0.09995371103286743,0.037646468728780746
1764585676277635600,12.038635498046874,0.001550039742141962,0.1324906051158905,0.05511227250099182
1764585676287589600,12.048589599609375,-0.01602840982377529,0.17284806072711945,0.07422098517417908
1764585676297544400,12.05854443359375,-0.028555387631058693,0.19422098994255066,0.09358616173267365
1764585676307498500,12.06849853515625,-0.045611124485731125,0.2036672979593277,0.10641290247440338
1764585676317452500,12.07845263671875,-0.06189076229929924,0.2138885110616684,0.11192405223846436
1764585676327406300,12.08840625,-0.07232482731342316,0.22125950455665588,0.10838247835636139
1764585676337361700,12.098361572265626,-0.0745011642575264,0.21688367426395416,0.10935905575752258
1764585676347315500,12.1083154296875,-0.07899760454893112,0.19941815733909607,0.10443364828824997
1764585676357269500,12.11826953125,-0.077427938580513,0.19076262414455414,0.09834060072898865
1764585676367223600,12.1282236328125,-0.08274223655462265,0.17954203486442566,0.0883442759513855
1764585676377177600,12.138177490234375,-0.08313638716936111,0.16272497177124023,0.07484124600887299
1764585676387132400,12.14813232421875,-0.08216655254364014,0.13196434080600739,0.06364323198795319
1764585676397086500,12.15808642578125,-0.08395246416330338,0.10222509503364563,0.060630399733781815
1764585676407040300,12.168040283203124,-0.08595587313175201,0.07747931778430939,0.054196421056985855
1764585676416994600,12.17799462890625,-0.09601463377475739,0.05896395444869995,0.056365568190813065
1764585676426949400,12.187949462890625,-0.10589782148599625,0.049786798655986786,0.0584448017179966
1764585676436903400,12.1979033203125,-0.11411793529987335,0.040814612060785294,0.05706075206398964
1764585676446857500,12.207857421875,-0.11486586183309555,0.04321373254060745,0.054532404989004135
1764585676456811500,12.2178115234375,-0.10962875932455063,0.04516023397445679,0.04726330563426018
1764585676466765300,12.227765380859376,-0.11208383738994598,0.04222681000828743,0.046160172671079636
1764585676476720600,12.237720703125,-0.11557844281196594,0.03270654007792473,0.05383780226111412
1764585676486674400,12.24767431640625,-0.11144883930683136,0.026003848761320114,0.056931812316179276
1764585676496628500,12.25762841796875,-0.0979953482747078,0.023970523849129677,0.05262388288974762
1764585676506582500,12.26758251953125,-0.08667208254337311,0.025522859767079353,0.04508819431066513
1764585676516537300,12.277537353515624,-0.07932282984256744,0.02368820831179619,0.04434117674827576
1764585676526491400,12.287491455078126,-0.07872441411018372,0.034496914595365524,0.044326264411211014
1764585676536445400,12.297445556640625,-0.07554193586111069,0.043942879885435104,0.04437952861189842
1764585676546399200,12.307399169921876,-0.07242763042449951,0.04020876809954643,0.04934658482670784
1764585676556353500,12.317353515625,-0.06840385496616364,0.04826562851667404,0.052746113389730453
1764585676566308600,12.32730859375,-0.05752965807914734,0.05654052644968033,0.05586840212345123
1764585676576262400,12.337262451171876,-0.044327836483716965,0.048576876521110535,0.052400704473257065
1764585676586216400,12.347216552734375,-0.02733525075018406,0.026304543018341064,0.05508289113640785
