time,seconds_elapsed,z,y,x
1764585664346288000,0.1072880859375,0.6508816480636597,0.8023446798324585,-0.7090669274330139
1764585664356242200,0.1172421875,0.7172635793685913,0.9641580581665039,-0.8087027072906494
1764585664366196200,0.1271962890625,0.7191219329833984,1.0667816400527954,-0.9013404846191406
1764585664376150000,0.13714990234375,0.6650789380073547,1.124781847000122,-1.0136300325393677
1764585664386104000,0.14710400390625,0.5701196789741516,1.14151930809021,-1.1582907438278198
1764585664396058400,0.157058349609375,0.4537552297115326,1.111413598060608,-1.314199447631836
1764585664406013200,0.16701318359375,0.32206058502197266,1.035959005355835,-1.488242268562317
1764585664415967200,0.17696728515625,0.17914950847625732,0.9617542624473572,-1.635708212852478
1764585664425921300,0.18692138671875,0.045351237058639526,0.8682395219802856,-1.7816039323806763
1764585664435875000,0.196875,-0.09879182279109955,0.774379312992096,-1.9579232931137085
1764585664445829000,0.2068291015625,-0.20468683540821075,0.7090504169464111,-2.077922821044922
1764585664455783200,0.216783203125,-0.23959980905056,0.6435904502868652,-2.116809844970703
1764585664465737200,0.2267373046875,-0.2153157740831375,0.602068305015564,-2.064094066619873
1764585664475691300,0.236691162109375,-0.1630759984254837,0.5693002343177795,-1.9328906536102295
1764585664485645300,0.246645263671875,-0.11488823592662811,0.5391069054603577,-1.7914578914642334
1764585664495600000,0.25660009765625,-0.10707372426986694,0.49462783336639404,-1.6203681230545044
1764585664505554200,0.26655419921875,-0.143888458609581,0.49046850204467773,-1.310247540473938
1764585664515508200,0.27650830078125,-0.18086113035678864,0.4467431306838989,-0.9918131232261658
1764585664525462300,0.286462158203125,-0.19655007123947144,0.37475043535232544,-0.7302262187004089
1764585664535416000,0.296416015625,-0.17925576865673065,0.2609224021434784,-0.5697345733642578
1764585664545370000,0.3063701171875,-0.1456512063741684,0.12814146280288696,-0.4945298433303833
1764585664555324400,0.316324462890625,-0.11873623728752136,0.007218764163553715,-0.4863336980342865
1764585664565278200,0.3262783203125,-0.1095571219921112,-0.07299937307834625,-0.5336580872535706
1764585664575233300,0.3362333984375,-0.1177026629447937,-0.15170297026634216,-0.5905730128288269
1764585664585187000,0.34618701171875,-0.2507653832435608,-0.5241755843162537,-0.9792797565460205
1764585664595141000,0.35614111328125,-0.6319862604141235,-0.4840068817138672,-0.9217634797096252
1764585664605095200,0.36609521484375,-0.7437532544136047,-0.5880030393600464,-0.7964596152305603
1764585664615049200,0.37604931640625,-0.6568042039871216,-0.7128166556358337,-0.7433817386627197
1764585664625003000,0.3860029296875,-0.45077675580978394,-0.8103072643280029,-0.7048556208610535
1764585664634957300,0.395957275390625,-0.23060764372348785,-0.8134955763816833,-0.6633177995681763
1764585664644911400,0.405911376953125,-0.01824185438454151,-0.677918553352356,-0.5347734093666077
1764585664654866200,0.4158662109375,0.17847439646720886,-0.3881288170814514,-0.34221965074539185
1764585664664820200,0.4258203125,0.3488360047340393,0.05806703120470047,-0.15483298897743225
1764585664674774300,0.435774169921875,0.48443084955215454,0.5496585965156555,0.033353161066770554
1764585664684728000,0.44572802734375,0.596697986125946,1.0521388053894043,0.2683126926422119
1764585664694682000,0.45568212890625,0.6621153950691223,1.4889789819717407,0.5252629518508911
1764585664704636400,0.465636474609375,0.7014747858047485,1.8239567279815674,0.780424952507019
1764585664714590200,0.475590087890625,0.7204609513282776,1.9789097309112549,1.0127935409545898
1764585664724544300,0.485544189453125,0.7185229659080505,2.0656425952911377,1.1994531154632568
1764585664734499300,0.495499267578125,0.7148717641830444,2.1881604194641113,1.32913339138031
1764585664744453000,0.505453125,0.7172766327857971,2.166778564453125,1.3065720796585083
1764585664754407200,0.5154072265625,0.7025086283683777,1.9134551286697388,1.1633154153823853
1764585664764361200,0.525361328125,0.6753717660903931,1.7047868967056274,0.9431076049804688
1764585664774315000,0.53531494140625,0.6564527153968811,1.4072315692901611,0.698985755443573
1764585664784268800,0.545268798828125,0.5205925703048706,0.5780678987503052,0.172596275806427
1764585664794222800,0.555222900390625,0.31559205055236816,0.12531477212905884,-0.2137889862060547
1764585664804177000,0.565177001953125,0.14925366640090942,-0.21706973016262054,-0.43386009335517883
1764585664814132000,0.575132080078125,0.002403769176453352,-0.4685581624507904,-0.48599785566329956
1764585664824086000,0.5850859375,-0.12362340092658997,-0.6088220477104187,-0.40388622879981995
1764585664834039800,0.595039794921875,-0.19445523619651794,-0.6601571440696716,-0.2620134949684143
1764585664843993900,0.604993896484375,-0.2683238685131073,-0.5921728014945984,-0.04614672064781189
1764585664853948000,0.614947998046875,-0.25552257895469666,-0.3596585690975189,0.2285199910402298
1764585664863902000,0.62490185546875,-0.141121968626976,-0.04531501606106758,0.46230584383010864
1764585664873855700,0.634855712890625,0.0311664417386055,0.21210266649723053,0.5889817476272583
1764585664883810000,0.64481005859375,0.11561181396245956,0.5254291892051697,0.719453752040863
1764585664893764900,0.654764892578125,0.26639947295188904,0.7694500684738159,0.7682585716247559
1764585664903719000,0.664718994140625,0.3863162696361542,0.8268837928771973,0.7522351145744324
1764585664913673000,0.6746728515625,0.4442536234855652,0.6742125153541565,0.7116706967353821
1764585664923627000,0.684626953125,0.45100873708724976,0.47788748145103455,0.674174964427948
1764585664933580800,0.694580810546875,0.40902185440063477,0.339364230632782,0.6569648385047913
1764585664943534800,0.704534912109375,0.3250441253185272,0.2580299377441406,0.6788988709449768
1764585664953489000,0.714489013671875,0.2706935405731201,0.19870483875274658,0.6536851525306702
1764585664963443000,0.72444287109375,0.2917468845844269,0.1899462342262268,0.6060733795166016
1764585664973398000,0.73439794921875,0.3376736342906952,0.25375744700431824,0.5952005386352539
1764585664983352000,0.74435205078125,0.3740343153476715,0.3130521774291992,0.5785533785820007
1764585664993305900,0.754305908203125,0.3932253122329712,0.35845163464546204,0.5551415085792542
1764585665003260000,0.764260009765625,0.407209575176239,0.3794842064380646,0.5251484513282776
1764585665013214000,0.7742138671875,0.4343133568763733,0.36843422055244446,0.502693235874176
1764585665023167700,0.784167724609375,0.46457886695861816,0.3327862024307251,0.46976056694984436
1764585665033121800,0.794121826171875,0.4977826178073883,0.29966020584106445,0.41639456152915955
1764585665043077000,0.8040771484375,0.5378757119178772,0.2804095447063446,0.3354475200176239
1764585665053031000,0.814031005859375,0.5595583915710449,0.23491424322128296,0.22537532448768616
1764585665062985000,0.82398486328125,0.5657225251197815,0.19249407947063446,0.10377832502126694
1764585665072939000,0.83393896484375,0.5796535015106201,0.20007769763469696,-0.009249690920114517
1764585665082892800,0.843892822265625,0.5978527665138245,0.21166937053203583,-0.06010514870285988
1764585665092846800,0.853846923828125,0.6095408201217651,0.157241553068161,-0.029939256608486176
1764585665102801000,0.86380078125,0.6138490438461304,-0.04542527347803116,0.0701652392745018
1764585665112755000,0.8737548828125,0.6090971827507019,-0.364061564207077,0.2252001017332077
1764585665122710000,0.8837099609375,0.5895999073982239,-0.7080053687095642,0.3795294761657715
1764585665132664000,0.8936640625,0.5754622220993042,-0.9233496189117432,0.4929034411907196
1764585665142617900,0.903617919921875,0.543871283531189,-0.9546827673912048,0.5477467179298401
1764585665152572000,0.913572021484375,0.501958966255188,-0.7716445326805115,0.5192658305168152
1764585665162526000,0.92352587890625,0.45756834745407104,-0.426975816488266,0.42681071162223816
1764585665172479700,0.933479736328125,0.43014365434646606,-0.08104318380355835,0.2926398515701294
1764585665182433800,0.943433837890625,0.3899450898170471,0.14044126868247986,0.15282469987869263
1764585665192387800,0.953387939453125,0.32004058361053467,0.23480771481990814,0.03285861387848854
1764585665202343000,0.963343017578125,0.23753425478935242,0.2493046373128891,-0.0913648009300232
1764585665212297000,0.973296875,0.16132444143295288,0.21236471831798553,-0.18287181854248047
1764585665222251000,0.9832509765625,0.10357779264450073,0.1839895397424698,-0.20194163918495178
1764585665232204800,0.993204833984375,0.06944885104894638,0.19280700385570526,-0.15475842356681824
1764585665242158800,1.003158935546875,0.0502498559653759,0.26790493726730347,-0.07996327430009842
1764585665252113000,1.01311279296875,0.048953961580991745,0.3922591209411621,-0.005832589231431484
1764585665262067000,1.02306689453125,0.07055433094501495,0.5516775250434875,0.0648847222328186
1764585665272022000,1.03302197265625,0.052992112934589386,0.7735849022865295,0.14289191365242004
1764585665281976000,1.04297607421875,0.06578034162521362,0.875990629196167,0.21587716042995453
1764585665291929900,1.052929931640625,0.10464678704738617,0.8861157298088074,0.2854759395122528
1764585665301884000,1.0628837890625,0.17087134718894958,0.838777482509613,0.35336366295814514
1764585665311838000,1.072837890625,0.26461195945739746,0.692774772644043,0.4113505184650421
1764585665321792000,1.0827919921875,0.3624860346317291,0.4933844208717346,0.4582834243774414
1764585665331745800,1.092745849609375,0.4385821521282196,0.3107008934020996,0.49287787079811096
1764585665341699800,1.102699951171875,0.4816156327724457,0.2153133749961853,0.4891798198223114
1764585665351655000,1.112655029296875,0.567331850528717,0.10192503035068512,0.4422035217285156
1764585665361609000,1.12260888671875,0.6616091132164001,-0.0263032428920269,0.36442962288856506
1764585665371563000,1.13256298828125,0.646083414554596,-0.028794363141059875,0.362900972366333
1764585665381517000,1.14251708984375,0.587868332862854,-0.03940839320421219,0.41349464654922485
1764585665391470800,1.152470947265625,0.5263229012489319,-0.021583056077361107,0.46840742230415344
1764585665401425000,1.1624248046875,0.5216410756111145,-0.05036943033337593,0.5628606677055359
1764585665411379000,1.17237890625,0.6220686435699463,-0.13069117069244385,0.6151132583618164
1764585665421332700,1.182332763671875,0.7036542892456055,-0.017787786200642586,0.5876310467720032
1764585665431288000,1.1922880859375,0.6644935607910156,0.265432208776474,0.5763919353485107
1764585665441241900,1.202241943359375,0.5459908843040466,0.4585300087928772,0.5529342889785767
1764585665451196000,1.21219580078125,0.48194241523742676,0.44618067145347595,0.48236319422721863
1764585665461150000,1.22214990234375,0.4598426818847656,0.38421371579170227,0.36738067865371704
1764585665471104000,1.23210400390625,0.48111841082572937,0.32578688859939575,0.2702575922012329
1764585665481057800,1.242057861328125,0.5477895736694336,0.2484889030456543,0.2230978012084961
1764585665491011800,1.25201171875,0.5929394960403442,0.2553047239780426,0.22176754474639893
1764585665500967000,1.261966796875,0.5790079832077026,0.396935373544693,0.2629333734512329
1764585665510921000,1.2719208984375,0.5474811792373657,0.5493906736373901,0.31889063119888306
1764585665520875000,1.281875,0.5424275994300842,0.7109137773513794,0.34365004301071167
1764585665530829000,1.2918291015625,0.5627999901771545,0.7969222068786621,0.3401376008987427
1764585665540781000,1.301781005859375,0.5971113443374634,0.7919950485229492,0.2929799556732178
1764585665550735000,1.311735107421875,0.6124082803726196,0.7319027185440063,0.21533548831939697
1764585665560689000,1.32168896484375,0.5940119624137878,0.60566645860672,0.10139719396829605
1764585665570643000,1.331642822265625,0.5360948443412781,0.5027529001235962,-0.008141815662384033
1764585665580597000,1.341596923828125,0.4822097718715668,0.4122730493545532,-0.10661512613296509
1764585665590551800,1.3515517578125,0.43433892726898193,0.4240564703941345,-0.14638571441173553
1764585665600505900,1.361505859375,0.38935309648513794,0.6026301980018616,-0.08307171612977982
1764585665610460200,1.371460205078125,0.37085583806037903,0.8346101641654968,0.026763970032334328
1764585665620414000,1.3814140625,0.40306222438812256,0.9655138850212097,0.14028173685073853
1764585665630368000,1.391367919921875,0.42862963676452637,1.0565050840377808,0.24326351284980774
1764585665640322000,1.401322021484375,0.4247419536113739,1.0702868700027466,0.3083304166793823
1764585665650275800,1.41127587890625,0.4273606538772583,0.9096234440803528,0.2558504045009613
1764585665660231000,1.42123095703125,0.3630911111831665,0.7470409274101257,0.11752290278673172
1764585665670185000,1.43118505859375,0.2495131641626358,0.6691493391990662,-0.036191292107105255
1764585665680138800,1.441138671875,0.12539121508598328,0.6861118078231812,-0.18332348763942719
1764585665690093000,1.451093017578125,0.02624385431408882,0.7386008501052856,-0.2728789448738098
1764585665700047000,1.461047119140625,-0.022848591208457947,0.7159093618392944,-0.29058974981307983
1764585665710001000,1.4710009765625,-0.001311873085796833,0.6229578256607056,-0.24767930805683136
1764585665719955000,1.480954833984375,0.08288156986236572,0.5372051000595093,-0.1426927000284195
1764585665729910000,1.490909912109375,0.19493938982486725,0.46761512756347656,-0.01979474350810051
1764585665739863800,1.50086376953125,0.2792699933052063,0.4323793649673462,0.10993928462266922
1764585665749817900,1.51081787109375,0.3155776560306549,0.4504672884941101,0.24145470559597015
1764585665759772000,1.52077197265625,0.32180094718933105,0.5413221120834351,0.3002011179924011
1764585665769726000,1.530725830078125,0.3176293671131134,0.6022395491600037,0.26838910579681396
1764585665779680500,1.540680419921875,0.2719617486000061,0.5480905175209045,0.19207516312599182
1764585665789634600,1.550634521484375,0.19515085220336914,0.37022653222084045,0.10182277113199234
1764585665799588400,1.56058837890625,0.11606801301240921,0.16014999151229858,0.05302806571125984
1764585665809543400,1.57054345703125,0.06940490752458572,0.0179358571767807,0.07239217311143875
1764585665819497500,1.58049755859375,0.05943909287452698,-0.0891418606042862,0.17923979461193085
1764585665829451300,1.590451171875,0.05732747167348862,-0.15372590720653534,0.4004749655723572
1764585665839405600,1.600405517578125,0.03828959912061691,-0.12742292881011963,0.657503604888916
1764585665849359600,1.610359619140625,-0.02208905667066574,0.007514907978475094,0.8700554966926575
1764585665859313400,1.6203134765625,-0.12265454977750778,0.16849154233932495,0.9230995774269104
1764585665869267500,1.630267333984375,-0.25290441513061523,0.24228161573410034,0.8219713568687439
1764585665879222300,1.64022216796875,-0.3992784321308136,0.1947135627269745,0.6386526823043823
1764585665889176300,1.65017626953125,-0.5173352956771851,0.07054740190505981,0.42976680397987366
1764585665899130400,1.66013037109375,-0.644133448600769,0.06540749967098236,0.24587607383728027
1764585665909084400,1.67008447265625,-0.7826031446456909,0.23195120692253113,0.07264117896556854
1764585665919038500,1.68003857421875,-0.84243243932724,0.7459266185760498,-0.14723604917526245
1764585665928992500,1.689992431640625,-1.072034478187561,1.0100346803665161,-0.1417379528284073
1764585665938946600,1.699946533203125,-1.2738295793533325,1.0715116262435913,-0.07396183907985687
1764585665948901400,1.7099013671875,-1.398404836654663,1.0008302927017212,-0.07171493023633957
1764585665958855400,1.71985546875,-1.498473882675171,0.7585148811340332,-0.16474607586860657
1764585665968809500,1.7298095703125,-1.59587824344635,0.6494954228401184,-0.3553306758403778
1764585665978763300,1.73976318359375,-1.672973871231079,0.7070375680923462,-0.6378390789031982
1764585665988717300,1.74971728515625,-1.664461612701416,0.9125390648841858,-1.0075678825378418
1764585665998671600,1.759671630859375,-1.5614904165267944,1.1444405317306519,-1.4096410274505615
1764585666008625400,1.76962548828125,-1.3827625513076782,1.2706990242004395,-1.7660702466964722
1764585666018579500,1.779579345703125,-1.1696957349777222,1.336846947669983,-1.7761050462722778
1764585666028534500,1.789534423828125,-0.9799511432647705,1.1892119646072388,-1.6254472732543945
1764585666038488300,1.79948828125,-0.833771288394928,0.8448455333709717,-1.3113785982131958
1764585666048442400,1.8094423828125,-0.6955971717834473,0.4201250970363617,-0.9585411548614502
1764585666058396400,1.819396484375,-0.5547153949737549,-0.016946492716670036,-0.66147780418396
1764585666068350200,1.82935009765625,-0.3885993957519531,-0.3293816149234772,-0.4649426341056824
1764585666078304500,1.839304443359375,-0.2218322604894638,-0.4267595708370209,-0.42348042130470276
1764585666088258600,1.849258544921875,-0.07059187442064285,-0.40846338868141174,-0.383563369512558
1764585666098213400,1.85921337890625,0.04357144609093666,-0.3116375207901001,-0.25069481134414673
1764585666108167400,1.86916748046875,0.1153058186173439,-0.14207938313484192,-0.07226993888616562
1764585666118121500,1.87912158203125,0.18259164690971375,0.07647346705198288,0.08599720150232315
1764585666128075300,1.8890751953125,0.23288917541503906,0.26245346665382385,0.20131847262382507
1764585666138029300,1.899029296875,0.2484217882156372,0.3582542836666107,0.2500889301300049
1764585666147983400,1.9089833984375,0.2237721085548401,0.3347145915031433,0.23908448219299316
1764585666157937400,1.9189375,0.10790809243917465,0.20640483498573303,0.15928739309310913
1764585666167892500,1.928892578125,0.03909626975655556,-0.17499391734600067,-0.01188169326633215
1764585666177846500,1.938846435546875,0.006923952605575323,-0.5336519479751587,-0.20221222937107086
1764585666187800300,1.94880029296875,0.0147485863417387,-0.679408073425293,-0.34093600511550903
1764585666197754400,1.95875439453125,0.016598151996731758,-0.6684366464614868,-0.3904215395450592
1764585666207708400,1.96870849609375,-0.007107710465788841,-0.5440353155136108,-0.34260448813438416
1764585666217662200,1.978662109375,-0.06882646679878235,-0.31757235527038574,-0.2257700115442276
1764585666227616300,1.9886162109375,-0.1897347867488861,-0.06796227395534515,-0.08798285573720932
1764585666237571600,1.998571533203125,-0.300814151763916,0.15816007554531097,0.03676360845565796
1764585666247525400,2.008525390625,-0.3631390631198883,0.2689494490623474,0.0795009508728981
1764585666257479400,2.0184794921875,-0.3781273365020752,0.25080958008766174,0.02275005355477333
1764585666267433500,2.02843359375,-0.3422718644142151,0.1272551566362381,-0.09812257438898087
1764585666277387300,2.03838720703125,-0.2670135796070099,-0.022836340591311455,-0.20264525711536407
1764585666287341300,2.04834130859375,-0.18813075125217438,-0.08630479127168655,-0.2372807264328003
1764585666297295400,2.05829541015625,-0.1095760315656662,-0.03633590415120125,-0.2181733399629593
1764585666307250400,2.06825048828125,-0.04659067094326019,0.05879859998822212,-0.15919631719589233
1764585666317204500,2.07820458984375,-0.0261855311691761,0.15987275540828705,-0.09662001579999924
1764585666327158500,2.088158447265625,-0.021345235407352448,0.2189571112394333,-0.08405256271362305
1764585666337112300,2.0981123046875,-0.003757187630981207,0.21896670758724213,-0.10546224564313889
1764585666347066400,2.10806640625,0.014495319686830044,0.21045470237731934,-0.13379614055156708
1764585666357020400,2.1180205078125,0.027722174301743507,0.1741401106119156,-0.1780238002538681
1764585666366974500,2.127974365234375,0.048110004514455795,0.14793673157691956,-0.2317189872264862
1764585666376929500,2.137929443359375,0.08709708601236343,0.1675003170967102,-0.2723422944545746
1764585666386883600,2.147883544921875,0.12667964398860931,0.18629930913448334,-0.2785927355289459
1764585666396837400,2.15783740234375,0.15715473890304565,0.17181330919265747,-0.2443772554397583
1764585666406791400,2.16779150390625,0.20150382816791534,0.14121225476264954,-0.17383171617984772
1764585666416745500,2.177745361328125,0.21279749274253845,0.07792595773935318,-0.07595095783472061
1764585666426699500,2.187699462890625,0.23205667734146118,0.06777558475732803,0.02845960482954979
1764585666436653300,2.1976533203125,0.27258625626564026,0.11665897071361542,0.14471271634101868
1764585666446608600,2.207608642578125,0.3398478627204895,0.1951356679201126,0.25044259428977966
1764585666456562400,2.2175625,0.44570425152778625,0.2785610556602478,0.33938178420066833
1764585666466516500,2.2275166015625,0.5012633800506592,0.4391193091869354,0.4297247529029846
1764585666476470500,2.237470458984375,0.5791863799095154,0.4791351556777954,0.5352069735527039
1764585666486424300,2.24742431640625,0.7206886410713196,0.4722098708152771,0.6013383269309998
1764585666496378400,2.25737841796875,0.8602234125137329,0.3917592465877533,0.6045780181884766
1764585666506332400,2.26733251953125,0.9253392815589905,0.23506498336791992,0.5872296690940857
1764585666516287200,2.277287353515625,0.9527733325958252,0.0380464531481266,0.5735226273536682
1764585666526241500,2.287241455078125,1.0019744634628296,-0.007348992861807346,0.5556347370147705
1764585666536195600,2.297195556640625,1.0871113538742065,0.03337899595499039,0.4941495358943939
1764585666546149400,2.3071494140625,1.1170570850372314,0.11902891844511032,0.37768736481666565
1764585666556103400,2.317103515625,1.0270533561706543,0.15807245671749115,0.19649547338485718
1764585666566057500,2.327057373046875,0.8545119762420654,0.13723774254322052,-0.02010153979063034
1764585666576011500,2.337011474609375,0.6715403199195862,0.0015504923649132252,-0.2448236048221588
1764585666585966300,2.34696630859375,0.5000324845314026,-0.289159893989563,-0.41500651836395264
1764585666595920400,2.35692041015625,0.39214327931404114,-0.5339193344116211,-0.48550093173980713
1764585666605874400,2.36687451171875,0.3746289908885956,-0.6301071047782898,-0.4742221534252167
1764585666615828500,2.376828369140625,0.38096678256988525,-0.525484561920166,-0.42837265133857727
1764585666625782500,2.386782470703125,0.40599730610847473,-0.3066512644290924,-0.4123987555503845
1764585666635736600,2.396736572265625,0.394696980714798,-0.2640465497970581,-0.43675363063812256
1764585666645690400,2.4066904296875,0.27338147163391113,-0.34440717101097107,-0.38864654302597046
1764585666655645400,2.4166455078125,0.10367579758167267,-0.4556894898414612,-0.23238423466682434
1764585666665599200,2.42659912109375,-0.04026805981993675,-0.46442732214927673,-0.015181349590420723
1764585666675553300,2.43655322265625,0.009130647405982018,-0.3882302939891815,0.20652946829795837
1764585666685507600,2.446507568359375,0.17708715796470642,-0.36569809913635254,0.38444462418556213
1764585666695461600,2.456461669921875,0.3135608434677124,-0.37357252836227417,0.4939902722835541
1764585666705415400,2.46641552734375,0.3717764914035797,-0.48675021529197693,0.5107799172401428
1764585666715369500,2.476369384765625,0.38477057218551636,-0.6484693288803101,0.4493192136287689
1764585666725324300,2.48632421875,0.40150535106658936,-0.7519842982292175,0.3455912172794342
1764585666735278300,2.4962783203125,0.4335460960865021,-0.9794216752052307,0.23403672873973846
1764585666745232400,2.506232421875,0.38474395871162415,-1.2490073442459106,0.023250993341207504
1764585666755186400,2.5161865234375,0.1705738753080368,-0.9438930153846741,-0.14334411919116974
1764585666765140500,2.526140380859375,0.06242050230503082,-0.5955238342285156,-0.12420743703842163
1764585666775094800,2.5360947265625,0.15094929933547974,-0.39494332671165466,-0.09599870443344116
1764585666785048800,2.546048828125,0.2688884437084198,-0.3208121061325073,-0.02991315722465515
1764585666795004000,2.55600390625,0.36242586374282837,-0.27443182468414307,-0.07143077254295349
1764585666804958000,2.5659580078125,0.3907158374786377,-0.1998760998249054,-0.054839279502630234
1764585666814911700,2.575911865234375,0.47063755989074707,-0.06263541430234909,0.022370286285877228
1764585666824865800,2.58586572265625,0.5032908320426941,0.08254387974739075,0.08365175127983093
1764585666834819800,2.59581982421875,0.45708605647087097,0.13762657344341278,0.10251465439796448
1764585666844774000,2.60577392578125,0.334773987531662,0.028677184134721756,0.07666628062725067
1764585666854727700,2.615727783203125,0.19613727927207947,-0.22851653397083282,0.026566097512841225
1764585666864683000,2.62568310546875,0.05700469762086868,-0.4982055425643921,0.0127570740878582
1764585666874636800,2.63563671875,-0.05471091717481613,-0.7167232036590576,0.06419523060321808
1764585666884590800,2.6455908203125,-0.12259222567081451,-0.8098284006118774,0.13708195090293884
1764585666894545000,2.655544921875,-0.1204044446349144,-0.7458339929580688,0.25344398617744446
1764585666904498700,2.665498779296875,-0.10220199823379517,-0.608879029750824,0.4141694903373718
1764585666914452700,2.67545263671875,-0.08727205544710159,-0.506954550743103,0.6022608280181885
1764585666924406800,2.68540673828125,-0.08929445594549179,-0.41556045413017273,0.7638015151023865
1764585666934361600,2.695361572265625,-0.11181201785802841,-0.4086325168609619,0.7874367833137512
1764585666944316000,2.70531591796875,-0.12718351185321808,-0.49220970273017883,0.6222273707389832
1764585666954270000,2.71527001953125,-0.12435044348239899,-0.5637288689613342,0.3722206950187683
1764585666964223700,2.7252236328125,-0.12003879249095917,-0.5886504650115967,0.14511458575725555
1764585666974177800,2.735177734375,-0.10572696477174759,-0.4977527856826782,-0.0075671058148145676
1764585666984131800,2.7451318359375,-0.07634536921977997,-0.27926546335220337,-0.014949388802051544
1764585666994086000,2.7550859375,-0.028675585985183716,0.060801565647125244,0.1284083127975464
1764585667004040700,2.765040771484375,0.01894572749733925,0.3848680555820465,0.34041935205459595
1764585667013994800,2.774994873046875,0.05663478374481201,0.4377102255821228,0.4712167978286743
1764585667023948800,2.78494873046875,0.047329965978860855,0.19525738060474396,0.4318757653236389
1764585667033902800,2.79490283203125,0.013236177153885365,-0.14045670628547668,0.19414550065994263
1764585667043857000,2.80485693359375,-0.01877608522772789,-0.31524184346199036,-0.1082891896367073
1764585667053811000,2.81481103515625,-0.02780047245323658,-0.3356342017650604,-0.31838250160217285
1764585667063764700,2.8247646484375,0.0002926813904196024,-0.2889082431793213,-0.43147310614585876
1764585667073719800,2.8347197265625,0.034742798656225204,-0.11625097692012787,-0.4606051445007324
1764585667083673600,2.844673583984375,0.07377568632364273,0.12261859327554703,-0.4084537923336029
1764585667093627600,2.854627685546875,0.07678346335887909,0.31204259395599365,-0.3450138568878174
1764585667103582000,2.86458203125,0.06010062247514725,0.3236699402332306,-0.3115547001361847
1764585667113536000,2.874535888671875,0.03533908352255821,0.2028801441192627,-0.33224666118621826
1764585667123489800,2.88448974609375,0.017837319523096085,0.15141801536083221,-0.3805135190486908
1764585667133443800,2.89444384765625,-0.006381999235600233,0.16782841086387634,-0.4491109549999237
1764585667143398700,2.904398681640625,-0.03960493206977844,0.2352018654346466,-0.5045422315597534
1764585667153352700,2.914352783203125,-0.0625922754406929,0.3233431875705719,-0.5430803298950195
1764585667163306800,2.924306640625,-0.07248538732528687,0.41500625014305115,-0.5527728796005249
1764585667173260800,2.9342607421875,-0.11589491367340088,0.6138895153999329,-0.5098491311073303
1764585667183214800,2.94421484375,-0.23205001652240753,0.8498687744140625,-0.40992680191993713
1764585667193169000,2.9541689453125,-0.41112494468688965,1.0660407543182373,-0.26573580503463745
1764585667203123700,2.964123779296875,-0.6812179684638977,1.223665475845337,-0.09439494460821152
1764585667213077800,2.974077880859375,-1.0486724376678467,1.2579164505004883,0.09426551312208176
1764585667223031800,2.98403173828125,-1.4053924083709717,1.104697346687317,0.2927650213241577
1764585667232985900,2.99398583984375,-1.6666765213012695,1.026849389076233,0.5282723307609558
1764585667242939600,3.003939697265625,-1.8708730936050415,0.9838550686836243,0.7986077070236206
1764585667252893700,3.013893798828125,-2.085340976715088,0.986788809299469,1.1398305892944336
1764585667262848000,3.023847900390625,-2.3609092235565186,1.1483383178710938,1.5940883159637451
1764585667272802800,3.033802734375,-2.7224435806274414,1.6728284358978271,2.1364309787750244
1764585667282756900,3.0437568359375,-3.1250410079956055,2.1943917274475098,2.6968655586242676
1764585667292710700,3.053710693359375,-3.5724918842315674,2.620332956314087,3.197899103164673
1764585667302664700,3.063664794921875,-4.047252178192139,2.960737943649292,3.592960834503174
1764585667312618800,3.07361865234375,-4.51555061340332,3.2335352897644043,3.85141658782959
1764585667322572800,3.08357275390625,-4.986861228942871,3.4292731285095215,3.9901316165924072
1764585667332527900,3.09352783203125,-5.431195259094238,3.4724135398864746,4.049316883087158
1764585667342482000,3.10348193359375,-5.901129245758057,3.4783520698547363,4.057869911193848
1764585667352435700,3.113435791015625,-6.380337715148926,3.4866950511932373,4.045480251312256
1764585667362389800,3.1233896484375,-6.7848639488220215,3.40421199798584,3.9741408824920654
1764585667372343800,3.13334375,-7.10194730758667,3.333101272583008,3.773664951324463
1764585667382297900,3.1432978515625,-7.331153869628906,3.260186195373535,3.4186959266662598
1764585667392251600,3.153251708984375,-7.526041030883789,3.1629035472869873,2.9003713130950928
1764585667402207000,3.16320703125,-7.723078727722168,3.0706822872161865,2.2709434032440186
1764585667412160800,3.173160888671875,-7.975955009460449,2.9386966228485107,1.590897560119629
1764585667422114800,3.18311474609375,-8.297944068908691,2.737860679626465,1.052776575088501
1764585667432068900,3.19306884765625,-8.564863204956055,2.5504355430603027,0.7850372791290283
1764585667442023000,3.20302294921875,-8.683082580566406,2.33001446723938,0.8583431839942932
1764585667451976700,3.212976806640625,-8.680209159851074,2.0210745334625244,1.3234877586364746
1764585667461931800,3.222931884765625,-8.646797180175781,1.7927355766296387,2.2189722061157227
1764585667471885800,3.2328857421875,-8.459964752197266,1.5273116827011108,3.310546875
1764585667481839900,3.24283984375,-8.02624225616455,1.2758277654647827,4.293339252471924
1764585667491794000,3.2527939453125,-7.324766635894775,1.0594608783721924,4.966574668884277
1764585667501748000,3.262748046875,-6.5117034912109375,0.7347877025604248,5.282702922821045
1764585667511701800,3.27270166015625,-5.68900728225708,0.3008735477924347,5.306499481201172
1764585667521656800,3.28265673828125,-4.727938652038574,-0.27917996048927307,5.118468761444092
1764585667531610600,3.292610595703125,-3.5784456729888916,-1.053062915802002,4.803417205810547
1764585667541564700,3.302564697265625,-2.3045499324798584,-1.830341100692749,4.384335041046143
1764585667551519000,3.31251904296875,-0.9137606620788574,-2.407341480255127,3.9086012840270996
1764585667561472800,3.32247265625,0.5256166458129883,-2.813631772994995,3.3575425148010254
1764585667571426800,3.3324267578125,1.8519749641418457,-3.182482957839966,2.4926140308380127
1764585667581380900,3.342380859375,2.6645007133483887,-3.3428592681884766,1.5785759687423706
1764585667591335700,3.352335693359375,3.0555665493011475,-3.154791831970215,0.8640173077583313
1764585667601289700,3.362289794921875,3.1024792194366455,-2.6417572498321533,0.2715689241886139
1764585667611243800,3.372243896484375,2.7174313068389893,-2.0331344604492188,-0.5922800898551941
1764585667621197800,3.38219775390625,2.3086135387420654,-1.1384813785552979,-1.2111878395080566
1764585667631151900,3.39215185546875,1.9514964818954468,0.11247221380472183,-1.3545715808868408
1764585667641106000,3.40210595703125,1.952435851097107,1.255676507949829,-1.1861705780029297
1764585667651060700,3.412060791015625,1.596422553062439,2.2964770793914795,-0.8381452560424805
1764585667661014800,3.422014892578125,1.4145281314849854,2.741457462310791,-0.4573315978050232
1764585667670968800,3.43196875,1.0280011892318726,2.7150893211364746,-0.36625176668167114
1764585667680922600,3.441922607421875,0.7274067401885986,2.8499698638916016,-0.6438367366790771
1764585667690876700,3.451876708984375,0.7261558771133423,2.783231735229492,-0.9921113848686218
1764585667700830700,3.461830810546875,0.48937129974365234,2.6234512329101562,-0.9901316165924072
1764585667710785800,3.471785888671875,0.3139565885066986,2.8776795864105225,-1.3367817401885986
1764585667720739800,3.48173974609375,0.554700493812561,2.956826686859131,-1.9553905725479126
1764585667730694000,3.49169384765625,1.2016464471817017,2.5695905685424805,-2.16637921333313
1764585667740647700,3.501647705078125,1.4628208875656128,2.239640712738037,-2.4664483070373535
1764585667750601700,3.511601806640625,1.6865428686141968,2.412478446960449,-2.7322194576263428
1764585667760555800,3.5215556640625,1.750476598739624,2.489640474319458,-2.902470111846924
1764585667770510800,3.5315107421875,1.3804327249526978,2.643195390701294,-2.902078866958618
1764585667780465000,3.54146484375,0.7626838088035583,2.2948429584503174,-2.386716842651367
1764585667790419000,3.5514189453125,0.2705995440483093,2.1183340549468994,-1.526992678642273
1764585667800372700,3.561372802734375,-0.14084580540657043,2.2652170658111572,-0.5687819719314575
1764585667810326800,3.571326904296875,-0.18443748354911804,1.5196620225906372,0.2918984293937683
1764585667820281000,3.581281005859375,-0.17501787841320038,0.4053831696510315,0.8438398838043213
1764585667830236000,3.59123583984375,-0.41519320011138916,-0.2940175235271454,0.9834819436073303
1764585667840190000,3.60118994140625,-0.6424974799156189,-0.501348614692688,0.7299700379371643
1764585667850144000,3.61114404296875,-0.7989251613616943,-0.38113775849342346,0.2414347231388092
1764585667860097800,3.621097900390625,-0.8630385994911194,-0.10910651087760925,-0.36753273010253906
1764585667870051800,3.6310517578125,-1.0100730657577515,0.549248993396759,-0.8711199760437012
1764585667880007000,3.6410068359375,-1.1750249862670898,1.043134331703186,-1.0300168991088867
1764585667889961000,3.6509609375,-1.2623032331466675,1.1639803647994995,-0.9577115774154663
1764585667899915000,3.6609150390625,-1.425384521484375,1.0999877452850342,-0.7669419050216675
1764585667909869000,3.670869140625,-1.7627761363983154,0.9643998742103577,-0.4929617643356323
1764585667919822800,3.68082275390625,-2.2201926708221436,0.9074718952178955,-0.22898578643798828
1764585667929777000,3.69077685546875,-2.71943998336792,0.8178831338882446,-0.01080045010894537
1764585667939731700,3.700731689453125,-3.298313856124878,0.8021070957183838,0.12064039707183838
1764585667949685800,3.710685791015625,-3.934828758239746,0.648995578289032,0.26839229464530945
1764585667959640000,3.72064013671875,-4.725263595581055,0.5031379461288452,0.4065406024456024
1764585667969594000,3.730593994140625,-5.64385986328125,0.641750156879425,0.5704115629196167
1764585667979548000,3.7405478515625,-6.54923677444458,1.294110655784607,0.8378246426582336
1764585667989502000,3.750501953125,-7.2649970054626465,2.4180445671081543,1.231402039527893
1764585667999456800,3.760456787109375,-7.574516773223877,3.614257335662842,1.5658912658691406
1764585668009410800,3.770410888671875,-7.429323673248291,4.282234191894531,2.092527151107788
1764585668019364900,3.78036474609375,-6.986481666564941,4.332634925842285,2.8156871795654297
1764585668029319000,3.79031884765625,-6.391457557678223,3.7623605728149414,3.5388858318328857
1764585668039273000,3.80027294921875,-5.785614967346191,3.0077691078186035,4.109241485595703
1764585668049228000,3.81022802734375,-5.048030376434326,2.6371102333068848,4.115047454833984
1764585668059181800,3.820181884765625,-4.195861339569092,2.787292242050171,3.565213441848755
1764585668069136000,3.830135986328125,-3.377514362335205,2.3657493591308594,3.2597286701202393
1764585668079090000,3.84008984375,-2.4684202671051025,0.8436436057090759,2.0677382946014404
1764585668089044000,3.8500439453125,-1.3498517274856567,0.17503732442855835,1.149094581604004
1764585668098997800,3.859997802734375,-0.45836570858955383,0.035229891538619995,0.3196727931499481
1764585668108953000,3.869953125,0.0551692470908165,-0.021085310727357864,-0.44427067041397095
1764585668118907000,3.879906982421875,0.12664902210235596,0.1980251967906952,-1.0084221363067627
1764585668128861000,3.88986083984375,-0.3379333019256592,0.5029355883598328,-1.2404251098632812
1764585668138815000,3.89981494140625,-0.5727591514587402,0.4003223776817322,-1.1232951879501343
1764585668148769000,3.90976904296875,-0.7737396359443665,0.27050071954727173,-0.7810721397399902
1764585668158723800,3.919723876953125,-0.8980815410614014,0.4400367736816406,-0.31985628604888916
1764585668168678000,3.929677978515625,-0.8766114115715027,0.720427930355072,-0.01136717014014721
1764585668178632000,3.9396318359375,-0.7291535139083862,0.6889081001281738,0.05457323044538498
1764585668188586000,3.9495859375,-0.6527924537658691,0.38824519515037537,-0.006594785954803228
1764585668198540000,3.9595400390625,-0.7947453260421753,-0.02676929533481598,-0.06874843686819077
1764585668208494800,3.969494873046875,-1.3756688833236694,-0.5233154296875,-0.06352304667234421
1764585668218449000,3.979448974609375,-2.2473037242889404,-1.0651201009750366,0.10489845275878906
1764585668228403000,3.98940283203125,-2.5646824836730957,-1.2024632692337036,0.2011490911245346
1764585668238356700,3.999356689453125,-2.585660219192505,-1.0904216766357422,0.18844448029994965
1764585668248311000,4.00931103515625,-2.5033912658691406,-0.904076874256134,0.10584307461977005
1764585668258265000,4.01926513671875,-2.3445489406585693,-0.7554325461387634,0.04129577428102493
1764585668268220000,4.029219970703125,-2.106607437133789,-0.5927945971488953,0.018391257151961327
1764585668278174000,4.039174072265625,-1.8586704730987549,-0.5381465554237366,0.02732749469578266
1764585668288128000,4.0491279296875,-1.6583155393600464,-0.6395456194877625,0.028714202344417572
1764585668298081800,4.059081787109375,-1.5022239685058594,-0.9441428184509277,-0.009435580112040043
1764585668308035800,4.069035888671875,-1.3279311656951904,-1.1346027851104736,0.013748036697506905
1764585668317991000,4.078990966796875,-1.0857760906219482,-1.1790772676467896,0.07960587739944458
1764585668327945000,4.088945068359375,-0.8181031346321106,-1.0896086692810059,0.1726900190114975
1764585668337899000,4.09889892578125,-0.5960902571678162,-0.8299360871315002,0.2902930676937103
1764585668347853000,4.10885302734375,-0.46296098828315735,-0.5805965662002563,0.36443495750427246
1764585668357806800,4.118806884765625,-0.4121004641056061,-0.4996471107006073,0.3591616153717041
1764585668367762000,4.128761962890625,-0.5336058735847473,-0.4473689794540405,0.3083527684211731
1764585668377715700,4.1387158203125,-0.8333150744438171,-0.43423107266426086,0.24648913741111755
1764585668387670000,4.148669921875,-1.0500799417495728,-0.6174536347389221,0.09777902066707611
1764585668397624000,4.1586240234375,-1.0821137428283691,-0.8074246048927307,-0.05516258627176285
1764585668407578000,4.168578125,-1.0634076595306396,-0.8620513677597046,-0.1444336175918579
1764585668417533000,4.178532958984375,-1.031248688697815,-0.9582562446594238,-0.1795998513698578
1764585668427487000,4.188487060546875,-1.0332024097442627,-0.951293408870697,-0.12064918875694275
1764585668437440800,4.198440673828125,-1.0396077632904053,-0.9983546137809753,0.0030714236199855804
1764585668447394800,4.208394775390625,-1.0404185056686401,-1.1743274927139282,0.1507279872894287
1764585668457348900,4.218348876953125,-0.7979693412780762,-1.5163943767547607,0.43999096751213074
1764585668467304000,4.228303955078125,-0.8965875506401062,-1.7210912704467773,0.6229232549667358
1764585668477258000,4.238258056640625,-1.1328767538070679,-0.9615846276283264,0.1682763546705246
1764585668487212000,4.2482119140625,-0.9228910207748413,-0.30376335978507996,-0.23804159462451935
1764585668497165800,4.258165771484375,-0.8808714151382446,0.06796493381261826,-0.3467923104763031
1764585668507119900,4.268119873046875,-0.8436686396598816,0.20716144144535065,-0.2103886604309082
1764585668517075000,4.278074951171875,-0.6711387038230896,0.3302977383136749,-0.022070415318012238
1764585668527029000,4.288029052734375,-0.39648768305778503,0.35696637630462646,0.11596868187189102
1764585668536983000,4.297983154296875,-0.17194779217243195,0.22937726974487305,0.15505562722682953
1764585668546937000,4.30793701171875,0.003117496380582452,-0.09775931388139725,0.12506604194641113
1764585668556891000,4.317890869140625,0.014755509793758392,-0.4820321500301361,0.09396430850028992
1764585668566846000,4.327845947265625,0.02039848268032074,-0.7352058291435242,0.082684226334095
1764585668576799700,4.3377998046875,0.05549575015902519,-1.011692762374878,0.11657082289457321
1764585668586753800,4.34775390625,0.1457604020833969,-1.4820078611373901,0.15919364988803864
1764585668596707800,4.357707763671875,0.2537577152252197,-1.9373433589935303,0.1846015304327011
1764585668606662100,4.367662109375,0.3527929484844208,-2.338803768157959,0.1901976317167282
1764585668616617000,4.377616943359375,0.3338693082332611,-2.708942174911499,0.25675615668296814
1764585668626571000,4.387571044921875,0.22665764391422272,-2.743307113647461,0.422823429107666
1764585668636524800,4.39752490234375,0.0723319873213768,-2.1465041637420654,0.6246494650840759
1764585668646478800,4.407478759765625,-0.09527591615915298,-1.13987398147583,0.7625836730003357
1764585668656433000,4.417432861328125,-0.19828246533870697,-0.06338483095169067,0.7322089672088623
1764585668666388000,4.427387939453125,-0.20718461275100708,0.9627572298049927,0.5246152877807617
1764585668676342000,4.437342041015625,-0.16633065044879913,1.7197823524475098,0.23889966309070587
1764585668686296000,4.447296142578125,-0.07477889955043793,2.312734603881836,0.04808736965060234
1764585668696249900,4.457249755859375,0.14471110701560974,3.0041158199310303,0.08986091613769531
1764585668706204000,4.467203857421875,0.5007115602493286,2.861605167388916,0.15982908010482788
1764585668716159000,4.477158935546875,0.6910319924354553,2.41985821723938,0.16414526104927063
1764585668726112800,4.48711279296875,0.8254555463790894,1.9313545227050781,0.19797885417938232
1764585668736066800,4.49706689453125,0.9678217768669128,1.2184345722198486,0.20695823431015015
1764585668746021000,4.507021240234375,0.9848212599754333,0.3965798318386078,0.2552863657474518
1764585668755975000,4.516974853515625,0.9735454320907593,-0.3844698965549469,0.331630676984787
1764585668765930000,4.526929931640625,1.0288366079330444,-0.9776282906532288,0.3904215395450592
1764585668775884000,4.536884033203125,1.0664197206497192,-1.3054602146148682,0.43316686153411865
1764585668785837800,4.546837890625,1.0697071552276611,-1.437342882156372,0.41943082213401794
1764585668795792000,4.5567919921875,0.9442424178123474,-1.4284801483154297,0.31660351157188416
1764585668805746000,4.566745849609375,0.8560038805007935,-1.1405285596847534,0.1854867786169052
1764585668815701000,4.576700927734375,0.7039163708686829,-0.8898912668228149,0.041979141533374786
1764585668825655000,4.586655029296875,0.4515235126018524,-0.6339532136917114,-0.048233576118946075
1764585668835608800,4.59660888671875,0.25192171335220337,-0.431937038898468,-0.06290466338396072
1764585668845563000,4.60656298828125,0.07440179586410522,-0.3011217713356018,-0.019121496006846428
1764585668855518000,4.61651806640625,-0.03910372778773308,-0.1470344513654709,0.04589212313294411
1764585668865471700,4.6264716796875,-0.026314428076148033,-0.012432967312633991,0.10919226706027985
1764585668875425800,4.63642578125,0.0054727960377931595,0.07206860184669495,0.16229170560836792
1764585668885380000,4.646380126953125,0.02239052578806877,0.11254864931106567,0.19761081039905548
1764585668895334000,4.656333984375,0.03833673521876335,0.11232920736074448,0.2135263979434967
1764585668905289000,4.6662890625,0.06145776808261871,0.13304594159126282,0.20035067200660706
1764585668915243000,4.676242919921875,0.09966666996479034,0.14585520327091217,0.1745060235261917
1764585668925196800,4.68619677734375,0.15555471181869507,0.11314599961042404,0.13272662460803986
1764585668935150800,4.69615087890625,0.28563788533210754,0.011665444821119308,0.10274714976549149
1764585668945105000,4.70610498046875,0.42467936873435974,-0.5124406814575195,0.25560301542282104
1764585668955060000,4.71606005859375,0.42165324091911316,-1.6213226318359375,0.715859055519104
1764585668965014000,4.726013916015625,0.3479901850223541,-2.674264907836914,1.2364121675491333
1764585668974968000,4.735968017578125,0.33984705805778503,-2.6478271484375,1.3231465816497803
1764585668984921900,4.745921875,0.3086731433868408,-1.7447090148925781,0.9543839693069458
1764585668994876000,4.7558759765625,0.2864091098308563,-0.7909700274467468,0.4253896474838257
1764585669004830700,4.765830810546875,0.2016654759645462,-0.08455269783735275,0.0036693033762276173
1764585669014784800,4.77578466796875,0.1492249071598053,0.2324015498161316,-0.19832374155521393
1764585669024739000,4.785739013671875,0.11163278669118881,0.3598068952560425,-0.23949408531188965
1764585669034693000,4.795693115234375,0.04704447463154793,0.43556317687034607,-0.20237094163894653
1764585669044647000,4.80564697265625,-0.012400477193295956,0.5258920192718506,-0.16792242228984833
1764585669054602000,4.81560205078125,-0.04531421884894371,0.6128745675086975,-0.1498214453458786
1764585669064555800,4.8255556640625,-0.06643335521221161,0.6241421699523926,-0.11657481640577316
1764585669074509800,4.835509765625,-0.0738353431224823,0.5950404405593872,-0.08613727986812592
1764585669084463900,4.8454638671875,-0.07684018462896347,0.5482401847839355,-0.08009297400712967
1764585669094419000,4.8554189453125,-0.08098939061164856,0.4016116261482239,-0.01296560000628233
1764585669104373000,4.865373046875,-0.11144477128982544,0.2185879945755005,0.07846524566411972
1764585669114327000,4.8753271484375,-0.15156635642051697,-0.012118981219828129,0.17326445877552032
1764585669124280800,4.88528076171875,-0.21120677888393402,-0.21961678564548492,0.23372673988342285
1764585669134235000,4.89523486328125,-0.2675422132015228,-0.34515684843063354,0.27969983220100403
1764585669144190000,4.90518994140625,-0.36254435777664185,-0.3794008493423462,0.3372938632965088
1764585669154143700,4.915143798828125,-0.443970263004303,-0.41522249579429626,0.40926820039749146
1764585669164098000,4.92509814453125,-0.5472231507301331,-0.39545679092407227,0.46632614731788635
1764585669174052000,4.935052001953125,-0.6674723029136658,-0.3301888406276703,0.5083410143852234
1764585669184006000,4.945005859375,-0.7921271920204163,-0.2574792206287384,0.5589852333068848
1764585669193961000,4.9549609375,-0.8886302709579468,-0.16355377435684204,0.5571839213371277
1764585669203915000,4.9649150390625,-0.9580394625663757,-0.09480613470077515,0.49185681343078613
1764585669213868800,4.974868896484375,-1.0231266021728516,0.039628636091947556,0.43665242195129395
1764585669223822800,4.98482275390625,-1.0969650745391846,0.04970710352063179,0.4432312250137329
1764585669233778000,4.99477783203125,-1.0780023336410522,-0.004403270315378904,0.4810726046562195
1764585669243732000,5.00473193359375,-1.0373071432113647,-0.060316070914268494,0.4760397672653198
1764585669253686000,5.01468603515625,-0.9134820699691772,-0.014375210739672184,0.394212007522583
1764585669263639800,5.024639892578125,-0.7872868776321411,0.1295366883277893,0.24788250029087067
1764585669273593900,5.03459375,-0.6106617450714111,0.06680965423583984,0.1130589097738266
1764585669283549000,5.044548828125,-0.3804522752761841,0.026323482394218445,-0.09641921520233154
1764585669293502700,5.054502685546875,-0.14743445813655853,0.010522948578000069,-0.3069799244403839
1764585669303457000,5.06445703125,-0.060938719660043716,0.032286301255226135,-0.4592914283275604
1764585669313411000,5.0744111328125,-0.022769760340452194,0.12895318865776062,-0.5245601534843445
1764585669323366000,5.084365966796875,0.005943376570940018,0.22461766004562378,-0.5354104042053223
1764585669333320000,5.09431982421875,-0.027722707018256187,0.20824508368968964,-0.49505260586738586
1764585669343274000,5.10427392578125,-0.07201533764600754,0.21425184607505798,-0.4362116754055023
1764585669353227800,5.114227783203125,-0.08715114742517471,0.2503073215484619,-0.3751685619354248
1764585669363181800,5.124181884765625,-0.08672850579023361,0.34919899702072144,-0.33170655369758606
1764585669373137000,5.134136962890625,-0.024476846680045128,0.46425876021385193,-0.31507939100265503
1764585669383091000,5.144091064453125,0.033226128667593,0.5634452700614929,-0.31996893882751465
1764585669393045000,5.154044921875,0.09412410110235214,0.6057034730911255,-0.32584309577941895
1764585669402999000,5.1639990234375,0.11332948505878448,0.542146623134613,-0.309253990650177
1764585669412952800,5.173952880859375,0.12031522393226624,0.4090290367603302,-0.24126960337162018
1764585669422908000,5.183907958984375,0.10498686879873276,0.17416568100452423,-0.15640878677368164
1764585669432862000,5.193862060546875,0.06601017713546753,-0.030058300122618675,-0.05927930399775505
1764585669442816000,5.20381591796875,-0.034341197460889816,-0.21666626632213593,0.035708460956811905
1764585669452770000,5.21377001953125,-0.1760927438735962,-0.3245764970779419,0.07955847680568695
1764585669462724900,5.223724853515625,-0.2617642283439636,-0.34338879585266113,0.04453098401427269
1764585669472679000,5.233678955078125,-0.25081971287727356,-0.2685531675815582,-0.06706158816814423
1764585669482633000,5.243633056640625,-0.13539190590381622,-0.1248423308134079,-0.1923137903213501
1764585669492586800,5.253586669921875,0.03152810037136078,-0.05652133375406265,-0.39543041586875916
1764585669502540800,5.263540771484375,0.06411667168140411,0.046064697206020355,-0.46689528226852417
1764585669512495900,5.273495849609375,-0.03831303492188454,-0.07999470084905624,-0.4095662236213684
1764585669522450000,5.283449951171875,-0.030719297006726265,-0.05940766632556915,-0.41179901361465454
1764585669532404000,5.293404052734375,0.04538159444928169,0.33039015531539917,-0.49022990465164185
1764585669542358000,5.30335791015625,0.10720128566026688,0.4799993634223938,-0.4833616018295288
1764585669552312800,5.313312744140625,0.06898785382509232,0.3938562273979187,-0.3620980381965637
1764585669562267000,5.323266845703125,0.14575959742069244,0.30538973212242126,-0.2295282632112503
1764585669572221000,5.333220947265625,0.18558530509471893,0.2527230679988861,-0.1710633635520935
1764585669582175000,5.343175048828125,0.04475362226366997,0.10198042541742325,-0.17600777745246887
1764585669592129000,5.35312890625,-0.05380517616868019,-0.0025952504947781563,-0.20602241158485413
1764585669602083800,5.363083740234375,0.044626858085393906,0.17752018570899963,-0.23089046776294708
1764585669612038000,5.373037841796875,0.19789071381092072,0.2957235276699066,-0.21934619545936584
1764585669621992000,5.382991943359375,0.3150269091129303,0.18117910623550415,-0.19302219152450562
1764585669631945700,5.39294580078125,0.4227571189403534,0.07760690897703171,-0.19037634134292603
1764585669641901000,5.402901123046875,0.5475727915763855,0.07646521180868149,-0.20830419659614563
1764585669651855000,5.412855224609375,0.7071230411529541,0.16347761452198029,-0.2644905149936676
1764585669661809000,5.422808837890625,0.8616042733192444,0.2959624230861664,-0.36489540338516235
1764585669671763000,5.432762939453125,0.9887869358062744,0.43750622868537903,-0.46824124455451965
1764585669681717000,5.442717041015625,1.1314994096755981,0.49400973320007324,-0.5347238779067993
1764585669691671800,5.452671875,1.2359099388122559,0.47753381729125977,-0.5528016686439514
1764585669701625900,5.4626259765625,1.2519983053207397,0.3689822852611542,-0.5192434191703796
1764585669711580200,5.472580078125,1.144888997077942,0.20637154579162598,-0.3814677298069
1764585669721534000,5.482533935546875,0.9599158763885498,-0.01696779765188694,-0.12866955995559692
1764585669731489000,5.492489013671875,0.727363646030426,-0.35925084352493286,0.20496593415737152
1764585669741442800,5.50244287109375,0.4698806703090668,-0.7452116012573242,0.5156548023223877
1764585669751396900,5.51239697265625,0.26475441455841064,-0.8956921696662903,0.6190304756164551
1764585669761351000,5.522350830078125,0.12683410942554474,-0.6272867918014526,0.5282300114631653
1764585669771305000,5.532304931640625,0.059713929891586304,-0.19407759606838226,0.33910563588142395
1764585669781259500,5.542259521484375,0.05103309080004692,0.22550556063652039,0.15065182745456696
1764585669791213600,5.552213623046875,0.08893866091966629,0.4529448449611664,0.05528828874230385
1764585669801167600,5.562167724609375,0.1335631161928177,0.4928131699562073,0.0471976064145565
1764585669811121700,5.57212158203125,0.16686701774597168,0.47487571835517883,0.08301259577274323
1764585669821075700,5.58207568359375,0.17051634192466736,0.4207560122013092,0.12814971804618835
1764585669831030500,5.592030517578125,0.15711425244808197,0.3550869822502136,0.16261181235313416
1764585669840984600,5.601984619140625,0.15438823401927948,0.2613210678100586,0.19952748715877533
1764585669850938600,5.611938720703125,0.16675196588039398,0.16426563262939453,0.21924632787704468
1764585669860892400,5.621892333984375,0.18762396275997162,0.062127288430929184,0.2258821278810501
1764585669870847700,5.63184765625,0.20822563767433167,-0.01900298520922661,0.22876474261283875
1764585669880801800,5.6418017578125,0.22887791693210602,-0.07926392555236816,0.23550599813461304
1764585669890755600,5.651755615234375,0.2578810751438141,-0.1029178574681282,0.25043514370918274
1764585669900709600,5.661709716796875,0.2828649878501892,-0.055694155395030975,0.2501975893974304
1764585669910663700,5.67166357421875,0.2995896339416504,0.10039930790662766,0.241935133934021
1764585669920618500,5.681618408203125,0.3038693368434906,0.22345013916492462,0.2426382154226303
1764585669930572500,5.691572509765625,0.28435397148132324,0.30973654985427856,0.2622095048427582
1764585669940526600,5.701526611328125,0.24188639223575592,0.37850522994995117,0.2908390164375305
1764585669950480600,5.711480712890625,0.1834246814250946,0.3886236548423767,0.3200712203979492
1764585669960435700,5.721435791015625,0.13195563852787018,0.3105719983577728,0.3304932415485382
1764585669970389500,5.731389404296875,0.09119009971618652,0.18538476526737213,0.31560802459716797
1764585669980343600,5.741343505859375,0.07495253533124924,0.05156145989894867,0.2673587203025818
1764585669990297600,5.751297607421875,0.07099614292383194,-0.04302603006362915,0.1904386579990387
1764585670000251600,5.761251708984375,0.07174928486347198,-0.08937036246061325,0.09303673356771469
1764585670010206700,5.771206787109375,0.07640023529529572,-0.0768633559346199,0.016524381935596466
1764585670020160800,5.781160888671875,0.10674109309911728,-0.03543735295534134,-0.02719992958009243
1764585670030114600,5.791114501953125,0.12649588286876678,-0.06257949024438858,-0.03437954559922218
1764585670040068600,5.801068603515625,0.1264633983373642,-0.09750977903604507,-0.017284180968999863
1764585670050023700,5.811023681640625,0.11572100967168808,-0.08296731859445572,0.013467871583998203
1764585670059977500,5.8209775390625,0.10917042940855026,-0.018740132451057434,0.031062578782439232
1764585670069931500,5.830931640625,0.10573282092809677,0.05265175923705101,0.0314098559319973
1764585670079885600,5.840885498046875,0.10493919998407364,0.08378011733293533,0.025072863325476646
1764585670089839600,5.850839599609375,0.09972499310970306,0.08394443243741989,0.016211461275815964
1764585670099794700,5.860794677734375,0.10143021494150162,0.06563253700733185,0.005539374891668558
1764585670109748500,5.87074853515625,0.11094116419553757,0.03123355284333229,-0.005437109619379044
1764585670119702500,5.88070263671875,0.12099486589431763,-0.009380718693137169,-0.02250690758228302
1764585670129656600,5.890656494140625,0.12883734703063965,-0.026585537940263748,-0.04170723259449005
1764585670139611400,5.900611328125,0.13552559912204742,-0.03447488695383072,-0.05655195936560631
1764585670149565700,5.910565673828125,0.14340536296367645,-0.06540536880493164,-0.05597751587629318
1764585670159519700,5.920519775390625,0.14160826802253723,-0.11815540492534637,-0.042511239647865295
1764585670169473500,5.9304736328125,0.1309731900691986,-0.1716039776802063,-0.022969763725996017
1764585670179427600,5.940427490234375,0.12382074445486069,-0.19538840651512146,-0.010537329129874706
1764585670189382700,5.950382568359375,0.11817643791437149,-0.2082136571407318,-0.0018245317041873932
1764585670199336400,5.96033642578125,0.10441721975803375,-0.21508914232254028,0.006536195985972881
1764585670209290500,5.97029052734375,0.09996122121810913,-0.21598529815673828,0.015253521502017975
1764585670219244500,5.98024462890625,0.0915413647890091,-0.21394957602024078,0.018622687086462975
1764585670229199600,5.99019970703125,0.09084175527095795,-0.20862111449241638,0.01734117418527603
1764585670239153700,6.000153564453125,0.089968241751194,-0.193239226937294,0.0065503111109137535
1764585670249107700,6.010107666015625,0.08689361810684204,-0.19805502891540527,-0.0038748993538320065
1764585670259061500,6.0200615234375,0.08690933138132095,-0.21577969193458557,-0.011930429376661777
1764585670269015600,6.030015625,0.08052759617567062,-0.23527856171131134,-0.01636565662920475
1764585670278970400,6.039970458984375,0.07415039092302322,-0.25474095344543457,-0.006976416800171137
1764585670288924700,6.049924560546875,0.06258215755224228,-0.27608779072761536,0.003593669505789876
1764585670298878700,6.059878662109375,0.04537414014339447,-0.2864381670951843,0.015796273946762085
1764585670308832800,6.069832763671875,0.029345639050006866,-0.267037034034729,0.03361468389630318
1764585670318787600,6.07978759765625,0.016920926049351692,-0.2472023367881775,0.060990650206804276
1764585670328741600,6.08974169921875,0.0037084517534822226,-0.2150944620370865,0.08359023183584213
1764585670338695400,6.0996953125,-0.002438656520098448,-0.19178062677383423,0.09930820763111115
1764585670348649500,6.1096494140625,-0.01606525294482708,-0.16842523217201233,0.10063819587230682
1764585670358603500,6.119603515625,-0.020666662603616714,-0.14443734288215637,0.10462148487567902
1764585670368558600,6.12955859375,-0.023149261251091957,-0.11899403482675552,0.11069242656230927
1764585670378512600,6.1395126953125,-0.022889602929353714,-0.09813748300075531,0.11993412673473358
1764585670388466700,6.149466796875,-0.024770593270659447,-0.06818731129169464,0.13101127743721008
1764585670398420500,6.15942041015625,-0.031558193266391754,-0.04093385115265846,0.14806190133094788
1764585670408375600,6.16937548828125,-0.037572674453258514,-0.017431721091270447,0.16252154111862183
1764585670418329600,6.17932958984375,-0.04603486880660057,-0.00974743627011776,0.1668369174003601
1764585670428283600,6.18928369140625,-0.0551852248609066,-0.007839813828468323,0.15770787000656128
1764585670438237700,6.19923779296875,-0.06771166622638702,-0.0035451999865472317,0.14736787974834442
1764585670448191700,6.209191650390625,-0.0702936053276062,-0.016031164675951004,0.1395712047815323
1764585670458146600,6.219146484375,-0.06608101725578308,-0.03388233482837677,0.1361202895641327
1764585670468100600,6.2291005859375,-0.05409971997141838,-0.04253707453608513,0.12523941695690155
1764585670478054400,6.239054443359375,-0.04001239687204361,-0.03218643367290497,0.10729343444108963
1764585670488008400,6.249008544921875,-0.0191944669932127,-0.012449745088815689,0.08629067987203598
1764585670497963800,6.2589638671875,0.0023036343045532703,0.01974654011428356,0.06586050242185593
1764585670507917600,6.26891748046875,0.026490995660424232,0.043290480971336365,0.04693794623017311
1764585670517871600,6.27887158203125,0.05134148523211479,0.041907504200935364,0.03127110376954079
1764585670527825700,6.28882568359375,0.06250492483377457,0.01641705632209778,0.023972976952791214
1764585670537779500,6.298779541015625,0.05474686995148659,0.004708202555775642,0.016472982242703438
1764585670547734500,6.308734619140625,0.0438111312687397,0.0017270599491894245,0.014097709208726883
1764585670557688600,6.3186884765625,0.044129643589258194,-0.004566522315144539,0.012742958962917328
1764585670567642600,6.328642578125,0.050094593316316605,-0.021869080141186714,0.006150304339826107
1764585670577596700,6.3385966796875,0.06285858899354935,-0.03447355329990387,-0.020769193768501282
1764585670587551500,6.348551513671875,0.07780318707227707,-0.0526493638753891,-0.053585730493068695
1764585670597505500,6.358505615234375,0.0928705483675003,-0.07260682433843613,-0.07813900709152222
1764585670607459600,6.36845947265625,0.10881649702787399,-0.08953201025724411,-0.09217546880245209
1764585670617413600,6.37841357421875,0.11961214989423752,-0.12094826251268387,-0.0876329094171524
1764585670627367400,6.388367431640625,0.12034105509519577,-0.1524270921945572,-0.06854523718357086
1764585670637322800,6.39832275390625,0.12084625661373138,-0.1843693107366562,-0.050809651613235474
1764585670647276500,6.408276611328125,0.11425893008708954,-0.19439584016799927,-0.04330672696232796
1764585670657230600,6.418230712890625,0.10531603544950485,-0.184737890958786,-0.04496720805764198
1764585670667184600,6.4281845703125,0.08724541962146759,-0.1771649271249771,-0.04585776850581169
1764585670677139500,6.438139404296875,0.06648901104927063,-0.15142041444778442,-0.03379764407873154
1764585670687093500,6.448093505859375,0.05736289173364639,-0.10872488468885422,-0.006478405557572842
1764585670697047800,6.4580478515625,0.05602891370654106,-0.06871781498193741,0.029266808182001114
1764585670707001600,6.468001708984375,0.04799894988536835,-0.03961452096700668,0.044508080929517746
1764585670716955600,6.47795556640625,0.03245168179273605,-0.0140143521130085,0.04411020129919052
1764585670726910500,6.487910400390625,0.027829233556985855,-0.0020692760590463877,0.03941451758146286
1764585670736864500,6.497864501953125,0.020246949046850204,0.0018628811230883002,0.03338725119829178
1764585670746818600,6.507818603515625,0.014099041000008583,-0.007699198555201292,0.03358618915081024
1764585670756772600,6.517772705078125,0.013251356780529022,-0.012685701251029968,0.026871562004089355
1764585670766727700,6.527727783203125,0.016452476382255554,-0.01932176575064659,0.020131366327404976
1764585670776681700,6.537681640625,0.022294120863080025,-0.02046932280063629,0.006354302167892456
1764585670786635500,6.547635498046875,0.0313965380191803,-0.01955718919634819,-0.0010687265312299132
1764585670796589600,6.557589599609375,0.04421140253543854,-0.015576030127704144,-0.0019489012192934752
1764585670806543600,6.567543701171875,0.05368932709097862,-0.02606329135596752,-0.00047857005847617984
1764585670816498700,6.577498779296875,0.049300435930490494,-0.03645920753479004,0.003073820611461997
1764585670826452700,6.58745263671875,0.04327450320124626,-0.047083355486392975,-0.0030602384358644485
1764585670836406800,6.59740673828125,0.04333841800689697,-0.06416354328393936,-0.013776798732578754
1764585670846360600,6.607360595703125,0.04319673776626587,-0.08284880965948105,-0.02684812620282173
1764585670856314600,6.617314697265625,0.0485646054148674,-0.09775665402412415,-0.03440990671515465
1764585670866269700,6.627269775390625,0.05324271321296692,-0.11316224187612534,-0.033186983317136765
1764585670876223500,6.637223388671875,0.05456364154815674,-0.1088860034942627,-0.026640664786100388
1764585670886177800,6.647177734375,0.05830378457903862,-0.10140997916460037,-0.010638795793056488
1764585670896131800,6.6571318359375,0.04952947050333023,-0.10196205228567123,0.00318886898458004
1764585670906086700,6.667086669921875,0.04358156397938728,-0.09050273895263672,0.010943461209535599
1764585670916040700,6.677040771484375,0.04268168285489082,-0.06798703968524933,0.007721303030848503
1764585670925994800,6.686994873046875,0.039741821587085724,-0.042508844286203384,0.004782238509505987
1764585670935948500,6.696948486328125,0.03779265284538269,-0.03395237401127815,0.015838351100683212
1764585670945903900,6.70690380859375,0.03645867481827736,-0.037214744836091995,0.037587057799100876
1764585670955857700,6.716857666015625,0.032515332102775574,-0.01829618215560913,0.05013933405280113
1764585670965811700,6.726811767578125,0.035285551100969315,0.0070616379380226135,0.053104497492313385
1764585670975765800,6.736765869140625,0.038299717009067535,0.011843343265354633,0.0504184328019619
1764585670985719800,6.7467197265625,0.03912290185689926,0.011856925673782825,0.04626203700900078
1764585670995674600,6.756674560546875,0.03970133885741234,0.009004147723317146,0.04328382387757301
1764585671005628700,6.766628662109375,0.03657239302992821,0.008979912847280502,0.04117166996002197
1764585671015582500,6.77658251953125,0.03454173356294632,0.012058793567121029,0.0444183312356472
1764585671025536800,6.786536865234375,0.03778732568025589,0.0173259936273098,0.05056437477469444
1764585671035491600,6.79649169921875,0.03906724229454994,0.01618163287639618,0.04849696159362793
1764585671045445600,6.806445556640625,0.03965073823928833,0.016558203846216202,0.03544933721423149
1764585671055399700,6.816399658203125,0.05462436378002167,0.017101489007472992,0.013448962941765785
1764585671065353700,6.826353759765625,0.07676508277654648,-0.0036165728233754635,-0.004071706905961037
1764585671075307500,6.8363076171875,0.09174536913633347,-0.022588400170207024,-0.020688766613602638
1764585671085262800,6.846262939453125,0.09211527556180954,-0.03400776907801628,-0.040699493139982224
1764585671095216600,6.856216552734375,0.09107504785060883,-0.01486390084028244,-0.050878360867500305
1764585671105170700,6.866170654296875,0.09010698646306992,0.009885121136903763,-0.04742450639605522
1764585671115124700,6.876124755859375,0.07868495583534241,0.037759628146886826,-0.04381805285811424
1764585671125079600,6.88607958984375,0.06039676442742348,0.06209373101592064,-0.024408137425780296
1764585671135033600,6.89603369140625,0.04951908439397812,0.059960007667541504,0.005464540328830481
1764585671144987600,6.905987548828125,0.058405518531799316,0.03918521851301193,0.042764775454998016
1764585671154941400,6.91594140625,0.08526057004928589,0.026040121912956238,0.07012396305799484
1764585671164895700,6.925895751953125,0.10503294318914413,0.03862036392092705,0.07490327209234238
1764585671174850800,6.935850830078125,0.12432567775249481,0.05608617141842842,0.05561399459838867
1764585671184804600,6.9458046875,0.1305372416973114,0.04724714159965515,0.0330522246658802
1764585671194758700,6.955758544921875,0.12781628966331482,0.0015544871566817164,0.0057068876922130585
1764585671204712700,6.965712646484375,0.11893171072006226,-0.05651148036122322,-0.019224295392632484
1764585671214667500,6.97566748046875,0.10852594673633575,-0.12917982041835785,-0.03919161111116409
1764585671224621800,6.985621826171875,0.10770276188850403,-0.18502205610275269,-0.06433025002479553
1764585671234576000,6.995575927734375,0.11265837401151657,-0.20306523144245148,-0.0840994343161583
1764585671244529700,7.00552978515625,0.1204313412308693,-0.20493583381175995,-0.10042726993560791
1764585671254483700,7.015483642578125,0.12525326013565063,-0.22618280351161957,-0.09774413704872131
1764585671264438500,7.0254384765625,0.13269838690757751,-0.25788772106170654,-0.07300736755132675
1764585671274392600,7.035392578125,0.13620923459529877,-0.26447799801826477,-0.04068804159760475
1764585671284346600,7.0453466796875,0.1410716325044632,-0.2790433466434479,0.0023545008152723312
1764585671294300700,7.05530078125,0.1560164988040924,-0.30020830035209656,0.03471483662724495
1764585671304255700,7.065255859375,0.16922125220298767,-0.31302610039711,0.059418320655822754
1764585671314209800,7.075209716796875,0.17150305211544037,-0.2763136029243469,0.07202279567718506
1764585671324163600,7.08516357421875,0.1519642323255539,-0.19406001269817352,0.0751890242099762
1764585671334117600,7.09511767578125,0.11759267747402191,-0.10200013220310211,0.08826354891061783
1764585671344071700,7.10507177734375,0.07439939677715302,-0.029437517747282982,0.0995582789182663
1764585671354026800,7.11502685546875,0.0416257418692112,-0.0028535770252346992,0.11167246848344803
1764585671363980800,7.124980712890625,0.031440213322639465,-0.03256779536604881,0.1366787552833557
1764585671373934800,7.134934814453125,0.04651264101266861,-0.05795517936348915,0.14974501729011536
1764585671383888600,7.144888671875,0.04506547749042511,-0.06403543800115585,0.1484360694885254
1764585671393843700,7.15484375,0.04412991181015968,-0.07019533216953278,0.1318190097808838
1764585671403797500,7.164797607421875,0.04531901329755783,-0.10288111120462418,0.11542726308107376
1764585671413751600,7.17475146484375,0.046733152121305466,-0.15728096663951874,0.10585799068212509
1764585671423705600,7.18470556640625,0.05024958774447441,-0.20588578283786774,0.10306885838508606
1764585671433660000,7.194659912109375,0.05829766020178795,-0.23264789581298828,0.10091915726661682
1764585671443614700,7.20461474609375,0.051895420998334885,-0.23091523349285126,0.09566527605056763
1764585671453568800,7.21456884765625,0.06189985200762749,-0.2175259292125702,0.09238452464342117
1764585671463522600,7.2245224609375,0.06650898605585098,-0.22646190226078033,0.10075750201940536
1764585671473476600,7.2344765625,0.07139082252979279,-0.25549808144569397,0.12120765447616577
1764585671483431700,7.244431640625,0.07765751332044601,-0.285420298576355,0.1392716020345688
1764585671493385700,7.2543857421875,0.09416724741458893,-0.3153347969055176,0.15169738233089447
1764585671503339800,7.26433984375,0.11372043937444687,-0.32536983489990234,0.1499309092760086
1764585671513293800,7.2742939453125,0.13596662878990173,-0.31307002902030945,0.14092569053173065
1764585671523247600,7.28424755859375,0.1582532823085785,-0.2870890200138092,0.13001951575279236
1764585671533202700,7.29420263671875,0.17372411489486694,-0.26146700978279114,0.12163694947957993
1764585671543156700,7.30415673828125,0.19245785474777222,-0.24388882517814636,0.1268080174922943
1764585671553110500,7.314110595703125,0.19912216067314148,-0.2353920191526413,0.13751685619354248
1764585671563064600,7.324064697265625,0.17588181793689728,-0.25143197178840637,0.15454430878162384
1764585671573019600,7.33401953125,0.14423653483390808,-0.2678535580635071,0.1728932112455368
1764585671582973700,7.3439736328125,0.11673860251903534,-0.274885892868042,0.18051251769065857
1764585671592927700,7.353927734375,0.09568231552839279,-0.2612611651420593,0.17767491936683655
1764585671602881800,7.3638818359375,0.08811095356941223,-0.23420077562332153,0.16330823302268982
1764585671612836600,7.373836669921875,0.09421331435441971,-0.19511809945106506,0.14748533070087433
1764585671622790700,7.383790771484375,0.10569580644369125,-0.16654929518699646,0.14270548522472382
1764585671632744700,7.39374462890625,0.12083373963832855,-0.129242405295372,0.14700143039226532
1764585671642698800,7.40369873046875,0.13508352637290955,-0.0987396240234375,0.16311489045619965
1764585671652652800,7.41365283203125,0.15750493109226227,-0.06042872369289398,0.18942026793956757
1764585671662607600,7.423607666015625,0.17724908888339996,-0.025590581819415092,0.2175522893667221
1764585671672561700,7.433561767578125,0.20875853300094604,0.00063356600003317,0.2405841052532196
1764585671682515700,7.443515625,0.22171801328659058,0.02412637509405613,0.24394236505031586
1764585671692469500,7.453469482421875,0.24163180589675903,0.05609948933124542,0.23961472511291504
1764585671702423600,7.463423583984375,0.24547234177589417,0.08397798985242844,0.20614758133888245
1764585671712378600,7.473378662109375,0.23967091739177704,0.10589980334043503,0.15601223707199097
1764585671722332700,7.483332763671875,0.21905271708965302,0.11271402984857559,0.1127859354019165
1764585671732286700,7.49328662109375,0.19173987209796906,0.08153693377971649,0.0821332186460495
1764585671742240800,7.50324072265625,0.15189579129219055,0.03579581528902054,0.05365949869155884
1764585671752195600,7.513195556640625,0.10013245791196823,0.010879811830818653,0.03105778433382511
1764585671762149600,7.523149658203125,0.05582065507769585,-0.028725387528538704,0.021381188184022903
1764585671772103700,7.533103759765625,0.043179962784051895,-0.09262926876544952,0.04265771433711052
1764585671782057000,7.543056884765625,0.046792272478342056,-0.16335031390190125,0.0881333202123642
1764585671792011000,7.553010986328125,0.05951818823814392,-0.20192059874534607,0.130791574716568
1764585671801965800,7.5629658203125,0.07275649160146713,-0.20507964491844177,0.17511749267578125
1764585671811920100,7.572920166015625,0.09376084804534912,-0.21361641585826874,0.20953191816806793
1764585671821874200,7.582874267578125,0.12541091442108154,-0.2221103012561798,0.23221565783023834
1764585671831828200,7.592828125,0.15963813662528992,-0.2445487529039383,0.24041873216629028
1764585671841783000,7.602782958984375,0.18388861417770386,-0.2652364671230316,0.2300124317407608
1764585671851737000,7.612737060546875,0.20882084965705872,-0.2939874231815338,0.2071036547422409
1764585671861691000,7.62269091796875,0.2363416999578476,-0.3040861189365387,0.17593879997730255
1764585671871645000,7.63264501953125,0.24571922421455383,-0.2980218529701233,0.13024455308914185
1764585671881600300,7.642600341796875,0.24147361516952515,-0.27500414848327637,0.08240433037281036
1764585671891554000,7.652553955078125,0.2245023548603058,-0.2236274927854538,0.03230627253651619
1764585671901508000,7.662508056640625,0.21450750529766083,-0.1791447252035141,-0.01194028276950121
1764585671911462100,7.672462158203125,0.21423107385635376,-0.16751176118850708,-0.0439315065741539
1764585671921416000,7.682416015625,0.1918352097272873,-0.17681604623794556,-0.056900568306446075
1764585671931371000,7.69237109375,0.14062954485416412,-0.19688190519809723,-0.04077699035406113
1764585671941325000,7.702324951171875,0.04422525316476822,-0.21774910390377045,0.003888215171173215
1764585671951279000,7.712279052734375,-0.07181799411773682,-0.21405929327011108,0.0542328767478466
1764585671961233200,7.722233154296875,-0.13312742114067078,-0.18383507430553436,0.08288156986236572
1764585671971188000,7.73218798828125,-0.11476173251867294,-0.20888130366802216,0.0871114656329155
1764585671981142000,7.74214208984375,-0.08564513176679611,-0.25677984952926636,0.07784153521060944
1764585671991096000,7.752095947265625,-0.08408132195472717,-0.2534594237804413,0.07498316466808319
1764585672001050000,7.762050048828125,-0.12062495201826096,-0.198709636926651,0.04988740012049675
1764585672011004000,7.77200390625,-0.16065466403961182,-0.08120191097259521,0.01889113336801529
1764585672020959200,7.781959228515625,-0.18316422402858734,-0.012295282445847988,-0.0015755260828882456
1764585672030913000,7.7919130859375,-0.17566609382629395,-0.07780531793832779,0.026585005223751068
1764585672040867000,7.8018671875,-0.18274344503879547,-0.205490842461586,0.11369407176971436
1764585672050821000,7.811821044921875,-0.19214999675750732,-0.27651041746139526,0.20855401456356049
1764585672060776000,7.82177587890625,-0.1801127791404724,-0.30378517508506775,0.24923911690711975
1764585672070730000,7.83172998046875,-0.1535368263721466,-0.2963842749595642,0.23398053646087646
1764585672080684000,7.84168408203125,-0.10909319669008255,-0.25595614314079285,0.1842164397239685
1764585672090638000,7.85163818359375,-0.06129957735538483,-0.22097977995872498,0.12352300435304642
1764585672100592000,7.861592041015625,-0.03321334719657898,-0.2021259367465973,0.06472360342741013
1764585672110547000,7.871546875,-0.04102626442909241,-0.2004433572292328,0.03014644980430603
1764585672120501000,7.8815009765625,-0.08883772790431976,-0.20540136098861694,0.025955168530344963
1764585672130455000,7.891455078125,-0.14674842357635498,-0.20670311152935028,0.042698994278907776
1764585672140409000,7.9014091796875,-0.19796128571033478,-0.21334876120090485,0.0681937038898468
1764585672150364200,7.9113642578125,-0.20173950493335724,-0.22302456200122833,0.10280361026525497
1764585672160318200,7.921318115234375,-0.1812182515859604,-0.23883149027824402,0.13322755694389343
1764585672170272000,7.93127197265625,-0.16748885810375214,-0.24521614611148834,0.15951935946941376
1764585672180226000,7.94122607421875,-0.1672814041376114,-0.22813943028450012,0.1831573098897934
1764585672190180000,7.95118017578125,-0.1757691651582718,-0.19369596242904663,0.21534746885299683
1764585672200135000,7.961135009765625,-0.19318464398384094,-0.15133093297481537,0.251573383808136
1764585672210089000,7.9710888671875,-0.21884553134441376,-0.11586295068264008,0.2815062403678894
1764585672220043000,7.98104296875,-0.24756398797035217,-0.09551693499088287,0.2941695749759674
1764585672229997000,7.9909970703125,-0.2654987871646881,-0.06795348227024078,0.27255377173423767
1764585672239952100,8.0009521484375,-0.2733282148838043,-0.012397813610732555,0.21970359981060028
1764585672249906200,8.01090625,-0.2700251042842865,0.013160277158021927,0.17163008451461792
1764585672259860000,8.02085986328125,-0.25504428148269653,-0.014827415347099304,0.14606373012065887
1764585672269814000,8.03081396484375,-0.22390073537826538,-0.04597015306353569,0.13254126906394958
1764585672279768000,8.04076806640625,-0.18720051646232605,-0.06180664151906967,0.1054217666387558
1764585672289723100,8.05072314453125,-0.14689837396144867,-0.07853049784898758,0.08932055532932281
1764585672299677200,8.06067724609375,-0.112850122153759,-0.0913163274526596,0.07189789414405823
1764585672309631200,8.07063134765625,-0.09361330419778824,-0.09026757627725601,0.06181702762842178
1764585672319585000,8.0805849609375,-0.10134579241275787,-0.13332103192806244,0.06135283783078194
1764585672329540000,8.0905400390625,-0.12196851521730423,-0.1941833198070526,0.0799504891037941
1764585672339494000,8.100493896484375,-0.14734791219234467,-0.2530897855758667,0.10304143279790878
1764585672349448000,8.110447998046874,-0.1692444235086441,-0.2979925572872162,0.1243499144911766
1764585672359402000,8.120402099609375,-0.17731165885925293,-0.30532288551330566,0.1270865797996521
1764585672369357000,8.130357177734375,-0.15895742177963257,-0.27128395438194275,0.10628542304039001
1764585672379311000,8.14031103515625,-0.13124243915081024,-0.21100278198719025,0.07275036722421646
1764585672389265200,8.15026513671875,-0.1091722920536995,-0.15958113968372345,0.05203603580594063
1764585672399219000,8.160218994140624,-0.08754183351993561,-0.11629731208086014,0.05554554983973503
1764585672409173000,8.170173095703126,-0.07499328255653381,-0.058456383645534515,0.06812339276075363
1764585672419128000,8.180128173828125,-0.06722857058048248,-0.009075520560145378,0.08784303814172745
1764585672429082000,8.19008203125,-0.06636916846036911,-0.012958675622940063,0.09552545845508575
1764585672439036200,8.2000361328125,-0.06790953874588013,-0.033551301807165146,0.08755888044834137
1764585672448990200,8.209990234375,-0.07141000032424927,-0.04006752371788025,0.06052699312567711
1764585672458945000,8.219945068359374,-0.07870093733072281,-0.012219381518661976,0.02448590099811554
1764585672468899000,8.229899169921875,-0.09290383756160736,0.020441891625523567,-0.0007749798824079335
1764585672478852900,8.239852783203125,-0.09754546731710434,0.03032301738858223,-0.005407814867794514
1764585672488807000,8.249806884765626,-0.10266006737947464,0.02791125886142254,0.00035952674807049334
1764585672498761000,8.259760986328125,-0.10426461696624756,0.0057769292034208775,0.004232828039675951
1764585672508716000,8.269716064453124,-0.09518936276435852,-0.0051686628721654415,-0.0047090016305446625
1764585672518670000,8.279670166015626,-0.06286924332380295,-0.020317789167165756,-0.02684865891933441
1764585672528624000,8.2896240234375,-0.0240736436098814,-0.056178584694862366,-0.056530918926000595
1764585672538578000,8.299577880859376,0.004749481566250324,-0.13118678331375122,-0.0946040004491806
1764585672548533000,8.309532958984375,0.015531023032963276,-0.19961883127689362,-0.13729260861873627
1764585672558487000,8.319487060546875,0.014095312915742397,-0.23528389632701874,-0.18311522901058197
1764585672568441000,8.329441162109376,0.0014397049089893699,-0.2432536631822586,-0.21473680436611176
1764585672578395100,8.33939501953125,-0.012030564248561859,-0.2447783201932907,-0.22879137098789215
1764585672588349200,8.34934912109375,-0.024644626304507256,-0.2537806034088135,-0.2243412286043167
1764585672598304000,8.359303955078126,-0.04734274744987488,-0.31520694494247437,-0.2049265205860138
1764585672608258000,8.369258056640625,-0.07164782285690308,-0.3549969792366028,-0.17437393963336945
1764585672618212000,8.379212158203124,-0.08228661864995956,-0.31440746784210205,-0.14214782416820526
1764585672628166000,8.389165771484375,-0.07300150394439697,-0.25081703066825867,-0.10994221270084381
1764585672638121200,8.399121337890625,-0.05876584351062775,-0.2349422127008438,-0.0826922133564949
1764585672648075000,8.409074951171876,-0.037513021379709244,-0.25061970949172974,-0.06597022712230682
1764585672658029000,8.419029052734375,-0.016823720186948776,-0.2584427297115326,-0.06244153901934624
1764585672667983000,8.428983154296875,0.00628905463963747,-0.2187371402978897,-0.08490263670682907
1764585672677937200,8.438937255859376,0.016500413417816162,-0.14224688708782196,-0.12746182084083557
1764585672687892000,8.44889208984375,0.012632171623408794,-0.04713448882102966,-0.17219918966293335
1764585672697846000,8.458845947265624,0.014880412258207798,0.07461991161108017,-0.19898952543735504
1764585672707800000,8.468800048828125,0.03442055732011795,0.18697920441627502,-0.20061619579792023
1764585672717754000,8.478754150390625,0.07017642259597778,0.2693864703178406,-0.15819336473941803
1764585672727709000,8.488708984375,0.09709432721138,0.33117181062698364,-0.0826362892985344
1764585672737663000,8.4986630859375,0.09935801476240158,0.31384021043777466,0.0068270135670900345
1764585672747617000,8.508616943359375,0.02076520025730133,0.2718850374221802,0.060383450239896774
1764585672757571000,8.518571044921876,-0.07555387914180756,0.28656357526779175,0.08177848905324936
1764585672767526100,8.528526123046875,-0.15548333525657654,0.24522334337234497,0.050506316125392914
1764585672777480200,8.538480224609375,-0.21673683822155,0.07791290432214737,0.02014894410967827
1764585672787434200,8.548434326171876,-0.2572421729564667,-0.0984988734126091,-0.014257232658565044
1764585672797388300,8.55838818359375,-0.270770788192749,-0.23733985424041748,-0.0841849148273468
1764585672807342300,8.56834228515625,-0.2496364563703537,-0.2745428681373596,-0.15993480384349823
1764585672817297200,8.578297119140625,-0.19668829441070557,-0.18630409240722656,-0.2055632770061493
1764585672827251200,8.588251220703125,-0.12226439267396927,-0.0548027940094471,-0.2183682918548584
1764585672837205500,8.59820556640625,-0.061648715287446976,0.07413414865732193,-0.1891387701034546
1764585672847159300,8.6081591796875,-0.035354528576135635,0.1832457184791565,-0.12831109762191772
1764585672857114400,8.6181142578125,-0.030842600390315056,0.2866504192352295,-0.050642937421798706
1764585672867068400,8.628068359375,-0.019209913909435272,0.34708231687545776,0.022190788760781288
1764585672877022200,8.638022216796875,-0.01543781254440546,0.3587493598461151,0.08293243497610092
1764585672886976300,8.647976318359374,-0.019543873146176338,0.3389327824115753,0.10991611331701279
1764585672896930300,8.657930419921875,-0.0225662961602211,0.302417129278183,0.10211651772260666
1764585672906885400,8.667885498046875,-0.008143413811922073,0.2653435170650482,0.06119438260793686
1764585672916839400,8.67783935546875,0.023663783445954323,0.2510434091091156,0.01549613568931818
1764585672926793200,8.687793212890625,0.061350710690021515,0.22710798680782318,-0.019577430561184883
1764585672936747300,8.697747314453125,0.08608881384134293,0.19374842941761017,-0.027176493778824806
1764585672946702300,8.707702392578126,0.08702464401721954,0.14358805119991302,-0.023387880995869637
1764585672956656000,8.71765625,0.07048268616199493,0.11477851122617722,-0.020737769082188606
1764585672966610200,8.727610107421874,0.043353598564863205,0.12074825912714005,-0.019899938255548477
1764585672976564500,8.737564453125,0.005309011787176132,0.17225591838359833,-0.030908914282917976
1764585672986518300,8.747518310546875,-0.020809940993785858,0.2183680236339569,-0.04760932922363281
1764585672996473300,8.757473388671874,-0.032401081174612045,0.23974202573299408,-0.06361386179924011
1764585673006427400,8.767427490234375,-0.03351827710866928,0.26542526483535767,-0.08678070455789566
1764585673016381200,8.777381103515625,-0.03819665312767029,0.28099730610847473,-0.10536237806081772
1764585673026335200,8.787335205078126,-0.04459995776414871,0.2498316764831543,-0.10958481580018997
1764585673036290300,8.797290283203125,-0.037159085273742676,0.19043013453483582,-0.10386541485786438
1764585673046244400,8.807244384765625,-0.0349409393966198,0.18117883801460266,-0.11599957197904587
1764585673056198400,8.817198486328126,-0.02984870970249176,0.21875284612178802,-0.13016200065612793
1764585673066152400,8.82715234375,-0.015220764093101025,0.24879410862922668,-0.133969247341156
1764585673076107300,8.837107177734374,0.00649651512503624,0.26994866132736206,-0.11887925118207932
1764585673086061300,8.847061279296875,0.03214488551020622,0.2955578863620758,-0.10403744876384735
1764585673096015000,8.85701513671875,0.047560062259435654,0.32263079285621643,-0.09302022308111191
1764585673105969200,8.86696923828125,0.04998993128538132,0.34541013836860657,-0.07795099169015884
1764585673115923500,8.87692333984375,0.05964948236942291,0.3591887950897217,-0.06327378004789352
1764585673125878300,8.886878173828125,0.06524451822042465,0.36013713479042053,-0.049855172634124756
1764585673135832300,8.896832275390626,0.08093772828578949,0.3577008843421936,-0.03645068407058716
1764585673145786400,8.906786376953125,0.08965452015399933,0.35457006096839905,-0.027236681431531906
1764585673155740200,8.916740234375,0.10027386993169785,0.34269317984580994,-0.02647075615823269
1764585673165695200,8.9266953125,0.10185392946004868,0.31071341037750244,-0.028293423354625702
1764585673175649300,8.936649169921875,0.09534276276826859,0.26649561524391174,-0.04483458399772644
1764585673185603300,8.946603271484374,0.08169033378362656,0.24774189293384552,-0.05882736295461655
1764585673195557400,8.956557373046875,0.07725324481725693,0.25680088996887207,-0.06299760937690735
1764585673205511400,8.966511474609375,0.0837542861700058,0.28572654724121094,-0.06769169867038727
1764585673215466200,8.97646630859375,0.08445150405168533,0.29138869047164917,-0.07622313499450684
1764585673225420300,8.986420166015625,0.07769639045000076,0.2884829342365265,-0.0789848268032074
1764585673235374300,8.996374267578124,0.07180041819810867,0.30811256170272827,-0.07678639143705368
1764585673245328100,9.006328125,0.0544121079146862,0.350312739610672,-0.06850475817918777
1764585673255283500,9.016283447265625,0.02786918170750141,0.38545021414756775,-0.05850272625684738
1764585673265237200,9.0262373046875,0.009061139076948166,0.41551971435546875,-0.046006374061107635
1764585673275191300,9.03619140625,0.005898901727050543,0.4490387737751007,-0.02745026722550392
1764585673285145300,9.046145263671875,0.011232680641114712,0.48548415303230286,-0.01221645250916481
1764585673295100200,9.05610009765625,0.014993330463767052,0.5151799917221069,-0.0005259743193164468
1764585673305054200,9.06605419921875,0.010849984362721443,0.5132169723510742,0.008833705447614193
1764585673315008500,9.076008544921875,-0.002689260058104992,0.5015515089035034,0.02449469082057476
1764585673324962300,9.08596240234375,-0.010635866783559322,0.513020932674408,0.04716458171606064
1764585673334916400,9.095916259765625,-0.007511445786803961,0.4930938482284546,0.07403934001922607
1764585673344871200,9.10587109375,-0.012314989231526852,0.43557941913604736,0.10343664139509201
1764585673354825200,9.1158251953125,0.00036938043194822967,0.40083715319633484,0.1236811950802803
1764585673364779300,9.125779296875,0.02809874527156353,0.3894297778606415,0.1358901858329773
1764585673374733300,9.1357333984375,0.04687030240893364,0.38112950325012207,0.13089382648468018
1764585673384688400,9.1456884765625,0.04975690320134163,0.3579871654510498,0.1189279854297638
1764585673394642400,9.155642333984375,0.04920722544193268,0.3389655351638794,0.10410696268081665
1764585673404596200,9.16559619140625,0.03509780019521713,0.3201252818107605,0.09559469670057297
1764585673414550300,9.17555029296875,0.02257588319480419,0.28272196650505066,0.09073709696531296
1764585673424504300,9.18550439453125,0.010607902891933918,0.2460198849439621,0.0813760831952095
1764585673434459100,9.195459228515626,0.004741225857287645,0.21371974050998688,0.0688653513789177
1764585673444413200,9.2054130859375,0.005105013493448496,0.21238017082214355,0.06052699312567711
1764585673454367500,9.215367431640624,0.010188987478613853,0.22118964791297913,0.06351985037326813
1764585673464321300,9.2253212890625,0.02912512794137001,0.2595018744468689,0.07676907628774643
1764585673474276400,9.2352763671875,0.06556462496519089,0.3016171157360077,0.09737475961446762
1764585673484230400,9.24523046875,0.09655370563268661,0.328647643327713,0.12449932098388672
1764585673494184200,9.25518408203125,0.1233254000544548,0.33464163541793823,0.15765833854675293
1764585673504138200,9.26513818359375,0.14631646871566772,0.32141345739364624,0.18318048119544983
1764585673514092300,9.27509228515625,0.17947149276733398,0.32887163758277893,0.2030670940876007
1764585673524047400,9.28504736328125,0.21489126980304718,0.36258217692375183,0.20944003760814667
1764585673534001400,9.29500146484375,0.24935390055179596,0.4007684588432312,0.21511337161064148
1764585673543955200,9.304955078125,0.29169097542762756,0.42152833938598633,0.23411156237125397
1764585673553909200,9.3149091796875,0.3360310196876526,0.428986519575119,0.2625863552093506
1764585673563864300,9.3248642578125,0.37831827998161316,0.4340614378452301,0.2839813828468323
1764585673573818000,9.334818115234375,0.4208771884441376,0.43401163816452026,0.315491646528244
1764585673583772200,9.344772216796875,0.46636104583740234,0.44029030203819275,0.3463670015335083
1764585673593726500,9.3547265625,0.5129786133766174,0.45065346360206604,0.3779507577419281
1764585673603681300,9.364681396484375,0.5580981373786926,0.4715616703033447,0.3989942669868469
1764585673613635300,9.37463525390625,0.6117802858352661,0.5037131905555725,0.42829301953315735
1764585673623589400,9.38458935546875,0.6607022881507874,0.5198439955711365,0.4632488787174225
1764585673633543200,9.394543212890625,0.6817423105239868,0.5370522737503052,0.5104201436042786
1764585673643497200,9.404497314453126,0.6840597987174988,0.5486633777618408,0.5551769137382507
1764585673653452300,9.414452392578125,0.6763230562210083,0.555759608745575,0.5969765782356262
1764585673663406300,9.42440625,0.6586495041847229,0.5533167123794556,0.6140199899673462
1764585673673360400,9.4343603515625,0.6820563077926636,0.5649856328964233,0.5996142029762268
1764585673683314400,9.444314453125,0.6973423361778259,0.573614239692688,0.5538815855979919
1764585673693269200,9.454269287109375,0.7249968647956848,0.6113046407699585,0.5157480239868164
1764585673703223300,9.464223388671876,0.7932198643684387,0.6798682808876038,0.5028913617134094
1764585673713177000,9.474177001953125,0.8659211993217468,0.7771996259689331,0.5503206849098206
1764585673723131400,9.48413134765625,0.9241251349449158,0.8285307288169861,0.6515101194381714
1764585673733085400,9.49408544921875,0.9980499744415283,0.8155728578567505,0.7178769111633301
1764585673743040300,9.504040283203125,1.0712381601333618,0.756814181804657,0.745756208896637
1764585673752994300,9.513994384765626,1.092516303062439,0.6013774275779724,0.7288102507591248
1764585673762948400,9.5239482421875,1.073004961013794,0.3772745728492737,0.6756205558776855
1764585673772902100,9.533902099609374,1.0175211429595947,0.10961464792490005,0.5776614546775818
1764585673782857500,9.543857421875,0.9783766865730286,-0.10552483052015305,0.4204271137714386
1764585673792811500,9.5538115234375,0.9275491833686829,-0.2760869860649109,0.22405120730400085
1764585673802765300,9.563765380859374,0.8751735687255859,-0.3533167839050293,0.03572683781385422
1764585673812719400,9.57371923828125,0.7750285863876343,-0.3588865101337433,-0.1161431148648262
1764585673822673400,9.58367333984375,0.6601920127868652,-0.30792614817619324,-0.205903097987175
1764585673832628200,9.593628173828124,0.5083354115486145,-0.24190184473991394,-0.23638057708740234
1764585673842582300,9.603582275390625,0.35785242915153503,-0.18200549483299255,-0.2538567781448364
1764585673852536300,9.613536376953125,0.21082834899425507,-0.13951262831687927,-0.28618675470352173
1764585673862490400,9.623490478515626,0.08816581219434738,-0.09727728366851807,-0.3208693563938141
1764585673872445400,9.633445556640625,-0.01708045043051243,-0.06344661861658096,-0.3634517192840576
1764585673882399200,9.643399169921874,-0.1005212813615799,0.001231711939908564,-0.3773805797100067
1764585673892353300,9.653353271484375,-0.160997673869133,0.09040819108486176,-0.3481859266757965
1764585673902307300,9.663307373046875,-0.17711059749126434,0.10924526304006577,-0.30543023347854614
1764585673912262100,9.67326220703125,-0.16408827900886536,0.14079786837100983,-0.2634694576263428
1764585673922216400,9.683216552734375,-0.16419079899787903,0.18506306409835815,-0.24774961173534393
1764585673932170500,9.69317041015625,-0.19880203902721405,0.22464163601398468,-0.2676878869533539
1764585673942124300,9.703124267578126,-0.2403702586889267,0.2519723176956177,-0.310977041721344
1764585673952078300,9.713078369140625,-0.27166399359703064,0.23787035048007965,-0.34844720363616943
1764585673962033200,9.723033203125,-0.29217833280563354,0.16154281795024872,-0.38058969378471375
1764585673971987200,9.7329873046875,-0.3084486424922943,0.11498890072107315,-0.4003330171108246
1764585673981941200,9.742941162109375,-0.2933144271373749,0.055154066532850266,-0.41801801323890686
1764585673991895300,9.752895263671874,-0.25469860434532166,-0.03370017185807228,-0.4488941729068756
1764585674001850400,9.762850341796875,-0.27691760659217834,-0.021135911345481873,-0.4105907380580902
1764585674011804400,9.772804443359375,-0.2351246327161789,-0.13949771225452423,-0.4359554648399353
1764585674021758200,9.78275830078125,-0.1866455078125,-0.18173597753047943,-0.4694889187812805
1764585674031712300,9.792712158203125,-0.11663713306188583,-0.22632688283920288,-0.49511227011680603
1764585674041666300,9.802666259765624,-0.1129571795463562,-0.3847351670265198,-0.49462437629699707
1764585674051621000,9.81262109375,-0.12138661742210388,-0.5862650871276855,-0.5131250619888306
1764585674061575400,9.822575439453125,-0.16468828916549683,-0.624639093875885,-0.4799306392669678
1764585674071529500,9.832529541015624,-0.20402289927005768,-0.6203958988189697,-0.43643617630004883
1764585674081483300,9.842483154296875,-0.2525257170200348,-0.5804519057273865,-0.3764370083808899
1764585674091438300,9.852438232421875,-0.26467081904411316,-0.6197996139526367,-0.34934201836586
1764585674101392400,9.862392333984374,-0.27523690462112427,-0.7079963088035583,-0.35333383083343506
1764585674111346200,9.87234619140625,-0.2730403244495392,-0.7567508220672607,-0.38134416937828064
1764585674121300200,9.88230029296875,-0.21949826180934906,-0.7321666479110718,-0.4219653606414795
1764585674131254300,9.892254150390626,-0.1383269876241684,-0.6717967391014099,-0.4556596577167511
1764585674141209300,9.902209228515625,-0.08232017606496811,-0.5698767900466919,-0.4554663300514221
1764585674151163400,9.912163330078124,-0.07096072286367416,-0.48253947496414185,-0.41924893856048584
1764585674161117400,9.922117431640626,-0.07724285870790482,-0.4028169512748718,-0.35511574149131775
1764585674171071200,9.9320712890625,-0.09453476220369339,-0.27539482712745667,-0.27770671248435974
1764585674181026300,9.9420263671875,-0.12080232053995132,-0.12228463590145111,-0.2024010419845581
1764585674190980000,9.95197998046875,-0.14663657546043396,0.04164784401655197,-0.13115055859088898
1764585674200934400,9.961934326171875,-0.1569211781024933,0.18101665377616882,-0.06461787223815918
1764585674210888400,9.971888427734376,-0.14384718239307404,0.275934636592865,0.005024852231144905
1764585674220843300,9.98184326171875,-0.11905661225318909,0.30763372778892517,0.07855259627103806
1764585674230797300,9.99179736328125,-0.09112191945314407,0.29617252945899963,0.15015648305416107
1764585674240751400,10.00175146484375,-0.07992545515298843,0.24754135310649872,0.21236072480678558
1764585674250705200,10.011705078125,-0.08035822212696075,0.15431606769561768,0.24611017107963562
1764585674260659200,10.0216591796875,-0.0727226734161377,0.05320090427994728,0.24006080627441406
1764585674270614300,10.0316142578125,-0.038474153727293015,-0.03144953399896622,0.20591428875923157
1764585674280568300,10.041568359375,0.006418218370527029,-0.09594330936670303,0.16075612604618073
1764585674290522400,10.0515224609375,0.04565350338816643,-0.12906424701213837,0.11307888478040695
1764585674300476400,10.061476318359375,0.07032982259988785,-0.12373872101306915,0.07670596241950989
1764585674310431200,10.07143115234375,0.08475323766469955,-0.1109563484787941,0.0563381053507328
1764585674320385300,10.08138525390625,0.0948340967297554,-0.10375303030014038,0.0618111677467823
1764585674330339000,10.091339111328125,0.09129582345485687,-0.13789102435112,0.07738453894853592
1764585674340293400,10.10129345703125,0.08480224013328552,-0.14226099848747253,0.0969872698187828
1764585674350247400,10.111247314453125,0.07596427202224731,-0.1297590583562851,0.11503098160028458
1764585674360202200,10.1212021484375,0.06993754208087921,-0.12655341625213623,0.1325971931219101
1764585674370156300,10.13115625,0.060749102383852005,-0.14638997614383698,0.14606879651546478
1764585674380110300,10.1411103515625,0.05409466102719307,-0.14298005402088165,0.14995141327381134
1764585674390064000,10.151064208984375,0.05295402929186821,-0.12522582709789276,0.15939578413963318
1764585674400019500,10.16101953125,0.05680708959698677,-0.1007031723856926,0.1656358391046524
1764585674409973500,10.170973388671875,0.06168493628501892,-0.06530417501926422,0.16731974482536316
1764585674419927300,10.18092724609375,0.06610152125358582,-0.03206632286310196,0.17449936270713806
1764585674429881300,10.19088134765625,0.06572628021240234,-0.002555303042754531,0.18534189462661743
1764585674439835400,10.20083544921875,0.048778459429740906,0.0008106662426143885,0.19939087331295013
1764585674449790200,10.210790283203124,0.040020652115345,-0.024654746055603027,0.2089870423078537
1764585674459744300,10.220744140625,0.03587890416383743,-0.021562816575169563,0.21674002707004547
1764585674469698300,10.2306982421875,0.02971555106341839,-0.015512647107243538,0.213074192404747
1764585674479652400,10.24065234375,0.022300511598587036,-0.013353089801967144,0.21577996015548706
1764585674489607400,10.250607421875,0.02028423175215721,-0.008234228007495403,0.21558767557144165
1764585674499561200,10.260561279296875,0.01594248041510582,-0.010908041149377823,0.2129410356283188
1764585674509515300,10.270515380859376,0.009294964373111725,-0.011270231567323208,0.20688819885253906
1764585674519469300,10.28046923828125,0.00490314606577158,-0.02256895788013935,0.19398225843906403
1764585674529424100,10.290424072265624,0.004575843457132578,-0.027714718133211136,0.17714841663837433
1764585674539378400,10.30037841796875,0.005059739574790001,-0.027359452098608017,0.1532723754644394
1764585674549332500,10.31033251953125,0.00666296249255538,-0.01968129351735115,0.1298876851797104
1764585674559286300,10.320286376953124,0.00138084904756397,-0.011565842665731907,0.1036616787314415
1764585674569240300,10.330240234375,-0.006340187508612871,0.01606978103518486,0.08162003010511398
1764585674579195100,10.340195068359375,-0.007933024317026138,0.04493551701307297,0.05553995817899704
1764585674589149200,10.350149169921876,-0.014090518467128277,0.07219776511192322,0.02299533039331436
1764585674599103200,10.360103271484375,-0.019604593515396118,0.08171563595533371,-0.010417221114039421
1764585674609057300,10.370057373046874,-0.027752801775932312,0.06083139404654503,-0.03927496820688248
1764585674619012400,10.380012451171876,-0.0384075753390789,0.002698581200093031,-0.05753759667277336
1764585674628966400,10.38996630859375,-0.04418503865599632,-0.05838847532868385,-0.0784388855099678
1764585674638920200,10.399920166015624,-0.044428981840610504,-0.0962948426604271,-0.10294662415981293
1764585674648874200,10.409874267578125,-0.042514704167842865,-0.11443283408880234,-0.12531930208206177
1764585674658828300,10.419828369140625,-0.04043104499578476,-0.1308664083480835,-0.1408119797706604
1764585674668783000,10.429783203125,-0.030611172318458557,-0.14439472556114197,-0.14552870392799377
1764585674678737400,10.4397373046875,-0.024598021060228348,-0.16771256923675537,-0.142596036195755
1764585674688691500,10.44969140625,-0.01660427637398243,-0.18449661135673523,-0.135649174451828
1764585674698645200,10.459645263671876,-0.01423379685729742,-0.18107791244983673,-0.12502369284629822
1764585674708600300,10.469600341796875,-0.019050123170018196,-0.161166250705719,-0.10769636929035187
1764585674718554400,10.479554443359374,-0.02231915481388569,-0.1351546198129654,-0.08579958975315094
1764585674728508200,10.489508056640625,-0.030111296102404594,-0.10700048506259918,-0.06229320168495178
1764585674738462200,10.499462158203125,-0.04109231010079384,-0.09138770401477814,-0.03630208224058151
1764585674748416300,10.509416259765626,-0.045580003410577774,-0.08330367505550385,-0.017896441742777824
1764585674758371300,10.519371337890625,-0.041428931057453156,-0.08580385148525238,-0.014457236044108868
1764585674768325400,10.529325439453125,-0.036859747022390366,-0.09118210524320602,-0.01599707640707493
1764585674778279400,10.539279541015626,-0.03150572627782822,-0.08882813900709152,-0.016753945499658585
1764585674788233200,10.549233154296875,-0.03388073667883873,-0.07725883275270462,-0.015361378900706768
1764585674798188300,10.559188232421874,-0.03584801405668259,-0.06065056473016739,-0.01191205345094204
1764585674808142000,10.56914208984375,-0.035943884402513504,-0.04006645828485489,-0.004123372491449118
1764585674818096000,10.57909619140625,-0.03503255173563957,-0.021699702367186546,0.006896788254380226
1764585674828050200,10.58905029296875,-0.025048894807696342,-0.016474580392241478,0.017425594851374626
1764585674838005200,10.599005126953125,-0.011473163962364197,-0.02293088287115097,0.022358302026987076
1764585674847959300,10.608959228515625,0.0034168355632573366,-0.03292146325111389,0.021150292828679085
1764585674857913300,10.618913330078126,0.01684689149260521,-0.03779531642794609,0.01876756176352501
1764585674867867100,10.6288671875,0.027176493778824806,-0.045338451862335205,0.018448514863848686
1764585674877821200,10.6388212890625,0.040579650551080704,-0.05751921981573105,0.020809940993785858
1764585674887776300,10.6487763671875,0.044328849762678146,-0.07887856662273407,0.028914205729961395
1764585674897730000,10.65872998046875,0.04687829315662384,-0.0837782546877861,0.0403791144490242
1764585674907684400,10.668684326171874,0.05090179666876793,-0.08956316858530045,0.049083124846220016
1764585674917638400,10.678638427734375,0.05938662588596344,-0.10476475954055786,0.05380703881382942
1764585674927593200,10.68859326171875,0.05712480470538139,-0.11417663842439651,0.06245245784521103
1764585674937547300,10.69854736328125,0.04921228811144829,-0.11981908231973648,0.07672940194606781
1764585674947501000,10.7085009765625,0.049245309084653854,-0.11754926294088364,0.09405911713838577
1764585674957455000,10.718455078125,0.05176465958356857,-0.11693593859672546,0.11021865159273148
1764585674967409200,10.7284091796875,0.04987568035721779,-0.11468929797410965,0.12527748942375183
1764585674977364200,10.7383642578125,0.047864992171525955,-0.10541324317455292,0.13525982201099396
1764585674987318300,10.748318359375,0.0416417196393013,-0.10658423602581024,0.14378540217876434
1764585674997272300,10.758272216796875,0.04222628474235535,-0.09367828816175461,0.14432787895202637
1764585675007226000,10.76822607421875,0.04102732613682747,-0.07532831281423569,0.14419259130954742
1764585675017181200,10.77818115234375,0.043655600398778915,-0.06856761127710342,0.13487951457500458
1764585675027135200,10.78813525390625,0.04740746319293976,-0.05277666077017784,0.127394437789917
1764585675037089000,10.798089111328125,0.05500119924545288,-0.030374949797987938,0.11209564656019211
1764585675047043300,10.808043212890626,0.06260266155004501,-0.010831342078745365,0.09091339260339737
1764585675056998100,10.817998046875,0.07238258421421051,0.00845340546220541,0.06165803596377373
1764585675066952200,10.8279521484375,0.08311938494443893,0.0273852851241827,0.02941807545721531
1764585675076906200,10.83790625,0.08446561545133591,0.05847262963652611,0.002034388715401292
1764585675086860300,10.8478603515625,0.0830293744802475,0.08113692700862885,-0.016329172998666763
1764585675096814000,10.85781396484375,0.07993771135807037,0.07007229328155518,-0.03988589718937874
1764585675106769400,10.867769287109375,0.08792027086019516,0.04693102464079857,-0.06702510267496109
1764585675116723200,10.87772314453125,0.08678815513849258,0.01938195340335369,-0.0947805717587471
1764585675126677200,10.88767724609375,0.09337841719388962,-0.017978733405470848,-0.11902865022420883
1764585675136631300,10.89763134765625,0.10016095638275146,-0.05420012027025223,-0.14327514171600342
1764585675146586000,10.907586181640625,0.09884242713451385,-0.061764031648635864,-0.1472376585006714
1764585675156540200,10.9175400390625,0.09358587861061096,-0.057679541409015656,-0.1436149626970291
1764585675166494200,10.927494140625,0.08722518384456635,-0.06774256378412247,-0.1438722163438797
1764585675176448000,10.937447998046874,0.08339528739452362,-0.09479282051324844,-0.13872672617435455
1764585675186402300,10.94740234375,0.07223904132843018,-0.1295047253370285,-0.13904869556427002
1764585675196357400,10.957357421875,0.05621613562107086,-0.12824106216430664,-0.14002661406993866
1764585675206311200,10.967311279296876,0.041312817484140396,-0.11607120931148529,-0.14025218784809113
1764585675216265200,10.97726513671875,0.03081117570400238,-0.1169135719537735,-0.1369786262512207
1764585675226219300,10.98721923828125,0.014568023383617401,-0.11648533493280411,-0.12546631693840027
1764585675236174000,10.997174072265626,-0.002570216776803136,-0.10827773809432983,-0.11469355970621109
1764585675246128400,11.00712841796875,-0.02014814503490925,-0.09175042808055878,-0.10604547709226608
1764585675256082200,11.017082275390624,-0.03027188591659069,-0.0824916809797287,-0.09518484026193619
1764585675266036200,11.0270361328125,-0.03844060003757477,-0.07772302627563477,-0.08543314039707184
1764585675275990300,11.036990234375,-0.041367415338754654,-0.06232968717813492,-0.08048605173826218
1764585675285945000,11.046945068359374,-0.03737986087799072,-0.06444716453552246,-0.08779989182949066
1764585675295899100,11.056899169921875,-0.0316292978823185,-0.05145546793937683,-0.09171713888645172
1764585675305853200,11.066853271484375,-0.022036327049136162,-0.04760080948472023,-0.10107548534870148
1764585675315807200,11.07680712890625,-0.011641476303339005,-0.05486005172133446,-0.10714243352413177
1764585675325762300,11.08676220703125,-0.004732171073555946,-0.08091535419225693,-0.10760289430618286
1764585675335716400,11.09671630859375,-0.003915379289537668,-0.09732388705015182,-0.10461562126874924
1764585675345670100,11.106670166015626,-0.006915430538356304,-0.1094958707690239,-0.10036388784646988
1764585675355624200,11.116624267578125,-0.001002413802780211,-0.11246342957019806,-0.09079035371541977
1764585675365579000,11.1265791015625,0.0002926813904196024,-0.09406498074531555,-0.0866808295249939
1764585675375533000,11.136532958984375,0.0030003173742443323,-0.07787482440471649,-0.0756596103310585
1764585675385487400,11.1464873046875,0.002831206424161792,-0.07058681547641754,-0.06533107161521912
1764585675395441400,11.15644140625,0.005819273181259632,-0.07197299599647522,-0.06047293171286583
1764585675405395200,11.166395263671875,0.009726929478347301,-0.07599250227212906,-0.061227936297655106
1764585675415350300,11.176350341796875,0.01375283021479845,-0.07775364816188812,-0.06554944813251495
1764585675425304000,11.186303955078126,0.022888271138072014,-0.06089876964688301,-0.0660834088921547
1764585675435258000,11.196258056640625,0.02799088880419731,-0.04477865621447563,-0.069057896733284
1764585675445212200,11.206212158203124,0.026525083929300308,-0.031744081526994705,-0.07075965404510498
1764585675455167200,11.216167236328126,0.02612481079995632,-0.009637979790568352,-0.06799449771642685
1764585675465121300,11.226121337890625,0.036492496728897095,0.00010492854926269501,-0.060443371534347534
1764585675475075300,11.236075439453124,0.043042540550231934,0.0012213257141411304,-0.05652399733662605
1764585675485029000,11.246029052734375,0.052563875913619995,-0.004789162427186966,-0.05886118486523628
1764585675494983200,11.255983154296874,0.059409528970718384,-0.00845313910394907,-0.05910486355423927
1764585675504938200,11.265938232421876,0.06468791514635086,-0.00606348505243659,-0.0649595558643341
1764585675514892000,11.27589208984375,0.06627542525529861,0.004346012603491545,-0.07176526635885239
1764585675524846300,11.285846435546874,0.07810705155134201,-0.004287156742066145,-0.08664647489786148
1764585675534800400,11.29580029296875,0.07901252806186676,-0.0022184131667017937,-0.0923301950097084
1764585675544755200,11.305755126953125,0.0846850574016571,0.008095743134617805,-0.09461811929941177
1764585675554709200,11.315709228515624,0.08954000473022461,0.0008410262526012957,-0.08726033568382263
1764585675564663300,11.325663330078125,0.08981750160455704,-0.03015364147722721,-0.07290004193782806
1764585675574617000,11.3356171875,0.08110737055540085,-0.07435039430856705,-0.04735260084271431
1764585675584571100,11.345571044921876,0.06774229556322098,-0.1121012344956398,-0.022232068702578545
1764585675594526200,11.355526123046875,0.05630694702267647,-0.1366177648305893,-0.005714611150324345
1764585675604480300,11.365480224609374,0.04521115496754646,-0.13479377329349518,0.0065801385790109634
1764585675614434300,11.375434326171876,0.03802328184247017,-0.11912345886230469,0.008509598672389984
1764585675624388000,11.38538818359375,0.034152645617723465,-0.08189219981431961,0.003171824850142002
1764585675634343200,11.39534326171875,0.031624771654605865,-0.04969378560781479,-0.004116714466363192
1764585675644297200,11.405297119140625,0.018805379047989845,-0.02333914488554001,-0.0036312201991677284
1764585675654251000,11.4152509765625,-0.00021198761533014476,-0.016078036278486252,-0.004114317707717419
1764585675664205300,11.425205322265626,-0.017225325107574463,-0.017014402896165848,0.0020639498252421618
1764585675674160000,11.43516015625,-0.03393399715423584,-0.029098762199282646,0.00523737259209156
1764585675684114200,11.4451142578125,-0.04633527249097824,-0.03448953479528427,0.0054480284452438354
1764585675694068200,11.455068115234376,-0.052979860454797745,-0.03748718649148941,0.0027838023379445076
1764585675704022300,11.465022216796875,-0.05545952916145325,-0.036553751677274704,0.0007952199084684253
1764585675713976000,11.47497607421875,-0.05708831921219826,-0.03612498193979263,0.004840561654418707
1764585675723931400,11.484931396484376,-0.06075815483927727,-0.04555976018309593,0.014754711650311947
1764585675733885200,11.49488525390625,-0.07016710191965103,-0.05067702382802963,0.03471563756465912
1764585675743839200,11.504839111328126,-0.08371194452047348,-0.05390770733356476,0.06083325669169426
1764585675753793300,11.514793212890625,-0.08912055194377899,-0.04796938970685005,0.08980019390583038
1764585675763748000,11.524748046875,-0.08609466999769211,-0.02816026471555233,0.10997363924980164
1764585675773702100,11.5347021484375,-0.09170781821012497,-0.011596468277275562,0.12856623530387878
1764585675783656400,11.544656494140625,-0.09390279650688171,0.0019241338595747948,0.14422188699245453
1764585675793610500,11.554610595703124,-0.10367126762866974,0.006286391522735357,0.15702344477176666
1764585675803564500,11.564564453125,-0.09416857361793518,0.005056011490523815,0.1707986444234848
1764585675813519400,11.574519287109375,-0.08620040118694305,0.00020426444825716317,0.17744189500808716
1764585675823473400,11.584473388671874,-0.0794128030538559,-0.006281598005443811,0.17934046685695648
1764585675833427500,11.594427490234375,-0.07158177345991135,0.00634817685931921,0.17295287549495697
1764585675843381500,11.604381591796875,-0.05811417102813721,0.018571021035313606,0.15881600975990295
1764585675853336600,11.614336669921874,-0.038918636739254,0.031975243240594864,0.12598589062690735
1764585675863290600,11.62429052734375,-0.029389580711722374,0.06666025519371033,0.07437623292207718
1764585675873244400,11.634244384765625,-0.03766535222530365,0.09798035770654678,0.03413959592580795
1764585675883198500,11.644198486328126,-0.051291149109601974,0.13712936639785767,0.0021965752821415663
1764585675893152500,11.654152587890625,-0.04169764369726181,0.1676662266254425,-0.008219580166041851
1764585675903107300,11.664107421875,-0.03086097724735737,0.1328781545162201,-0.0035505264531821012
1764585675913061400,11.674061279296875,-0.02221076376736164,0.09077011793851852,-0.011567706242203712
1764585675923015400,11.684015380859375,-0.0242542065680027,0.05709364637732506,-0.03586159273982048
1764585675932969500,11.693969482421876,-0.03255261853337288,0.060621801763772964,-0.07080439478158951
1764585675942924500,11.703924560546875,-0.03711434453725815,0.05419692397117615,-0.10210319608449936
1764585675952878600,11.713878662109375,-0.04531075432896614,0.014070811681449413,-0.11503630876541138
1764585675962832400,11.723832275390626,-0.04733822122216225,-0.05427016317844391,-0.11673273891210556
1764585675972786400,11.733786376953125,-0.050753191113471985,-0.1385035514831543,-0.10647185146808624
1764585675982740500,11.743740478515624,-0.04647322744131088,-0.1929105967283249,-0.09189716726541519
1764585675992695600,11.753695556640626,-0.04734700918197632,-0.2076440006494522,-0.07276448607444763
1764585676002649600,11.763649658203125,-0.03973063454031944,-0.20655131340026855,-0.05014119669795036
1764585676012603600,11.773603759765624,-0.02774294838309288,-0.20225456357002258,-0.024344220757484436
1764585676022557400,11.783557373046875,-0.018877018243074417,-0.1570836305618286,0.007783354725688696
1764585676032512500,11.793512451171875,-0.0237071942538023,-0.07790891081094742,0.04254080355167389
1764585676042466300,11.80346630859375,-0.03436143696308136,0.0031590417493134737,0.08130630850791931
1764585676052420400,11.81342041015625,-0.04711158573627472,0.05440758168697357,0.11723288148641586
1764585676062374400,11.82337451171875,-0.057438790798187256,0.08844251185655594,0.13357244431972504
1764585676072329500,11.83332958984375,-0.06045854836702347,0.12686926126480103,0.13499483466148376
1764585676082283500,11.843283447265625,-0.06604240089654922,0.15801014006137848,0.12820084393024445
1764585676092237600,11.853237548828124,-0.06367671489715576,0.17067267000675201,0.11144636571407318
1764585676102191400,11.86319140625,-0.05865186080336571,0.1694292426109314,0.0973084419965744
1764585676112145400,11.8731455078125,-0.049728140234947205,0.17000049352645874,0.06944538652896881
1764585676122100500,11.8831005859375,-0.03563868626952171,0.18656028807163239,0.04025208204984665
1764585676132054500,11.893054443359375,-0.016944628208875656,0.20505301654338837,0.009326922707259655
1764585676142008600,11.903008544921875,0.0016285229939967394,0.22464509308338165,-0.017676465213298798
1764585676151962600,11.912962646484376,0.01495364960283041,0.2272520661354065,-0.024406272917985916
1764585676161917400,11.92291748046875,0.02617274783551693,0.1856071501970291,-0.022961242124438286
1764585676171871500,11.93287158203125,0.032286301255226135,0.15780507028102875,-0.019052786752581596
1764585676181825300,11.9428251953125,0.04494457319378853,0.16495326161384583,-0.03706427663564682
1764585676191779300,11.952779296875,0.043831102550029755,0.18684925138950348,-0.059724584221839905
1764585676201733400,11.9627333984375,0.04916222020983696,0.17057333886623383,-0.06645066291093826
1764585676211688400,11.9726884765625,0.05631919950246811,0.1341964155435562,-0.061524614691734314
1764585676221642500,11.982642578125,0.05185733735561371,0.09415632486343384,-0.049493249505758286
1764585676231596500,11.992596435546876,0.04760400578379631,0.05681188404560089,-0.028791168704628944
1764585676241550300,12.00255029296875,0.04171841964125633,0.03576119244098663,-0.0057441722601652145
1764585676251505400,12.01250537109375,0.03434252738952637,0.041377000510692596,0.01642158441245556
1764585676261459500,12.02245947265625,0.02666569873690605,0.07091572135686874,0.03539607301354408
1764585676271413500,12.03241357421875,0.015484417788684368,0.11021944880485535,0.05347973480820656
1764585676281367600,12.042367431640624,0.0023723437916487455,0.1432567536830902,0.0725836530327797
1764585676291322400,12.052322265625,-0.0169113390147686,0.18161240220069885,0.09112777560949326
1764585676301276400,12.0622763671875,-0.033189643174409866,0.19174599647521973,0.10893340408802032
1764585676311230500,12.07223046875,-0.048949431627988815,0.2030218243598938,0.11740412563085556
1764585676321184500,12.0821845703125,-0.06227695569396019,0.21501190960407257,0.11804541200399399
1764585676331138300,12.09213818359375,-0.06921502202749252,0.217576801776886,0.11418037116527557
1764585676341093600,12.10209375,-0.07277113944292068,0.21089546382427216,0.11312362551689148
1764585676351047400,12.11204736328125,-0.07524921745061874,0.18804900348186493,0.10971451550722122
1764585676361001500,12.12200146484375,-0.07846178859472275,0.18320630490779877,0.10357273370027542
1764585676370955500,12.13195556640625,-0.07913795858621597,0.16996321082115173,0.0915544182062149
1764585676380910300,12.141910400390625,-0.07821677625179291,0.1505487561225891,0.07623005658388138
1764585676390864400,12.151864501953124,-0.08052493631839752,0.1164267435669899,0.06859610229730606
1764585676400818700,12.161818603515625,-0.07841411232948303,0.0887698158621788,0.06287083774805069
1764585676410772500,12.1717724609375,-0.08589520305395126,0.06750740110874176,0.06296378374099731
1764585676420726500,12.1817265625,-0.09567752480506897,0.05059020593762398,0.06161569431424141
1764585676430681300,12.191681396484375,-0.1066574677824974,0.046478286385536194,0.06541655957698822
1764585676440635400,12.201635498046874,-0.11114063858985901,0.03852715343236923,0.06345140933990479
1764585676450589400,12.21158935546875,-0.11006098985671997,0.042990345507860184,0.058283545076847076
1764585676460543500,12.22154345703125,-0.10683510452508926,0.04368729144334793,0.052139632403850555
1764585676470498600,12.23149853515625,-0.11095501482486725,0.0358504094183445,0.05716155841946602
1764585676480452600,12.24145263671875,-0.11080747097730637,0.023316508159041405,0.06305672973394394
1764585676490406400,12.251406494140625,-0.10277751088142395,0.01998382806777954,0.06284021586179733
1764585676500360400,12.2613603515625,-0.08786540478467941,0.020019780844449997,0.05754958093166351
1764585676510314500,12.271314453125,-0.08149832487106323,0.019990485161542892,0.053230199962854385
1764585676520269300,12.281269287109374,-0.07240096479654312,0.02148132398724556,0.051117513328790665
1764585676530223400,12.291223388671876,-0.07117298245429993,0.03694763034582138,0.051352135837078094
1764585676540177700,12.301177734375,-0.07040199637413025,0.04013916477560997,0.05253884196281433
1764585676550131500,12.31113134765625,-0.06710126996040344,0.037932999432086945,0.05733759328722954
1764585676560086500,12.32108642578125,-0.061171744018793106,0.04510942101478577,0.06235178932547569
1764585676570040600,12.33104052734375,-0.04971855506300926,0.05401476472616196,0.06179013103246689
1764585676579994400,12.340994384765626,-0.032647158950567245,0.03731221705675125,0.06250812113285065
